# 
#                 ----------------------------------------------------
#                 Data from a 3D direct N-body simulation. 
# 
#                 rows are i-particle; 
#                 coumns are :mass, tag, x ,y, z, vx, vy, vz, ax, ay, az
# 
#                 NTHU, Computational Physics Lab
# 
#                 ----------------------------------------------------
#                 Time = 0.4000000000000002
1.000000000000000000e+00 2.000000000000000000e+00 3.000000000000000000e+00 4.000000000000000000e+00 5.000000000000000000e+00 6.000000000000000000e+00 7.000000000000000000e+00 8.000000000000000000e+00 9.000000000000000000e+00 1.000000000000000000e+01 1.100000000000000000e+01 1.200000000000000000e+01 1.300000000000000000e+01 1.400000000000000000e+01 1.500000000000000000e+01 1.600000000000000000e+01 1.700000000000000000e+01 1.800000000000000000e+01 1.900000000000000000e+01 2.000000000000000000e+01 2.100000000000000000e+01 2.200000000000000000e+01 2.300000000000000000e+01 2.400000000000000000e+01 2.500000000000000000e+01 2.600000000000000000e+01 2.700000000000000000e+01 2.800000000000000000e+01 2.900000000000000000e+01 3.000000000000000000e+01 3.100000000000000000e+01 3.200000000000000000e+01 3.300000000000000000e+01 3.400000000000000000e+01 3.500000000000000000e+01 3.600000000000000000e+01 3.700000000000000000e+01 3.800000000000000000e+01 3.900000000000000000e+01 4.000000000000000000e+01 4.100000000000000000e+01 4.200000000000000000e+01 4.300000000000000000e+01 4.400000000000000000e+01 4.500000000000000000e+01 4.600000000000000000e+01 4.700000000000000000e+01 4.800000000000000000e+01 4.900000000000000000e+01 5.000000000000000000e+01 5.100000000000000000e+01 5.200000000000000000e+01 5.300000000000000000e+01 5.400000000000000000e+01 5.500000000000000000e+01 5.600000000000000000e+01 5.700000000000000000e+01 5.800000000000000000e+01 5.900000000000000000e+01 6.000000000000000000e+01 6.100000000000000000e+01 6.200000000000000000e+01 6.300000000000000000e+01 6.400000000000000000e+01 6.500000000000000000e+01 6.600000000000000000e+01 6.700000000000000000e+01 6.800000000000000000e+01 6.900000000000000000e+01 7.000000000000000000e+01 7.100000000000000000e+01 7.200000000000000000e+01 7.300000000000000000e+01 7.400000000000000000e+01 7.500000000000000000e+01 7.600000000000000000e+01 7.700000000000000000e+01 7.800000000000000000e+01 7.900000000000000000e+01 8.000000000000000000e+01 8.100000000000000000e+01 8.200000000000000000e+01 8.300000000000000000e+01 8.400000000000000000e+01 8.500000000000000000e+01 8.600000000000000000e+01 8.700000000000000000e+01 8.800000000000000000e+01 8.900000000000000000e+01 9.000000000000000000e+01 9.100000000000000000e+01 9.200000000000000000e+01 9.300000000000000000e+01 9.400000000000000000e+01 9.500000000000000000e+01 9.600000000000000000e+01 9.700000000000000000e+01 9.800000000000000000e+01 9.900000000000000000e+01 1.000000000000000000e+02 1.010000000000000000e+02 1.020000000000000000e+02 1.030000000000000000e+02 1.040000000000000000e+02 1.050000000000000000e+02 1.060000000000000000e+02 1.070000000000000000e+02 1.080000000000000000e+02 1.090000000000000000e+02 1.100000000000000000e+02 1.110000000000000000e+02 1.120000000000000000e+02 1.130000000000000000e+02 1.140000000000000000e+02 1.150000000000000000e+02 1.160000000000000000e+02 1.170000000000000000e+02 1.180000000000000000e+02 1.190000000000000000e+02 1.200000000000000000e+02 1.210000000000000000e+02 1.220000000000000000e+02 1.230000000000000000e+02 1.240000000000000000e+02 1.250000000000000000e+02 1.260000000000000000e+02 1.270000000000000000e+02 1.280000000000000000e+02 1.290000000000000000e+02 1.300000000000000000e+02 1.310000000000000000e+02 1.320000000000000000e+02 1.330000000000000000e+02 1.340000000000000000e+02 1.350000000000000000e+02 1.360000000000000000e+02 1.370000000000000000e+02 1.380000000000000000e+02 1.390000000000000000e+02 1.400000000000000000e+02 1.410000000000000000e+02 1.420000000000000000e+02 1.430000000000000000e+02 1.440000000000000000e+02 1.450000000000000000e+02 1.460000000000000000e+02 1.470000000000000000e+02 1.480000000000000000e+02 1.490000000000000000e+02 1.500000000000000000e+02 1.510000000000000000e+02 1.520000000000000000e+02 1.530000000000000000e+02 1.540000000000000000e+02 1.550000000000000000e+02 1.560000000000000000e+02 1.570000000000000000e+02 1.580000000000000000e+02 1.590000000000000000e+02 1.600000000000000000e+02 1.610000000000000000e+02 1.620000000000000000e+02 1.630000000000000000e+02 1.640000000000000000e+02 1.650000000000000000e+02 1.660000000000000000e+02 1.670000000000000000e+02 1.680000000000000000e+02 1.690000000000000000e+02 1.700000000000000000e+02 1.710000000000000000e+02 1.720000000000000000e+02 1.730000000000000000e+02 1.740000000000000000e+02 1.750000000000000000e+02 1.760000000000000000e+02 1.770000000000000000e+02 1.780000000000000000e+02 1.790000000000000000e+02 1.800000000000000000e+02 1.810000000000000000e+02 1.820000000000000000e+02 1.830000000000000000e+02 1.840000000000000000e+02 1.850000000000000000e+02 1.860000000000000000e+02 1.870000000000000000e+02 1.880000000000000000e+02 1.890000000000000000e+02 1.900000000000000000e+02 1.910000000000000000e+02 1.920000000000000000e+02 1.930000000000000000e+02 1.940000000000000000e+02 1.950000000000000000e+02 1.960000000000000000e+02 1.970000000000000000e+02 1.980000000000000000e+02 1.990000000000000000e+02 2.000000000000000000e+02 2.010000000000000000e+02 2.020000000000000000e+02 2.030000000000000000e+02 2.040000000000000000e+02 2.050000000000000000e+02 2.060000000000000000e+02 2.070000000000000000e+02 2.080000000000000000e+02 2.090000000000000000e+02 2.100000000000000000e+02 2.110000000000000000e+02 2.120000000000000000e+02 2.130000000000000000e+02 2.140000000000000000e+02 2.150000000000000000e+02 2.160000000000000000e+02 2.170000000000000000e+02 2.180000000000000000e+02 2.190000000000000000e+02 2.200000000000000000e+02 2.210000000000000000e+02 2.220000000000000000e+02 2.230000000000000000e+02 2.240000000000000000e+02 2.250000000000000000e+02 2.260000000000000000e+02 2.270000000000000000e+02 2.280000000000000000e+02 2.290000000000000000e+02 2.300000000000000000e+02 2.310000000000000000e+02 2.320000000000000000e+02 2.330000000000000000e+02 2.340000000000000000e+02 2.350000000000000000e+02 2.360000000000000000e+02 2.370000000000000000e+02 2.380000000000000000e+02 2.390000000000000000e+02 2.400000000000000000e+02 2.410000000000000000e+02 2.420000000000000000e+02 2.430000000000000000e+02 2.440000000000000000e+02 2.450000000000000000e+02 2.460000000000000000e+02 2.470000000000000000e+02 2.480000000000000000e+02 2.490000000000000000e+02 2.500000000000000000e+02 2.510000000000000000e+02 2.520000000000000000e+02 2.530000000000000000e+02 2.540000000000000000e+02 2.550000000000000000e+02 2.560000000000000000e+02 2.570000000000000000e+02 2.580000000000000000e+02 2.590000000000000000e+02 2.600000000000000000e+02 2.610000000000000000e+02 2.620000000000000000e+02 2.630000000000000000e+02 2.640000000000000000e+02 2.650000000000000000e+02 2.660000000000000000e+02 2.670000000000000000e+02 2.680000000000000000e+02 2.690000000000000000e+02 2.700000000000000000e+02 2.710000000000000000e+02 2.720000000000000000e+02 2.730000000000000000e+02 2.740000000000000000e+02 2.750000000000000000e+02 2.760000000000000000e+02 2.770000000000000000e+02 2.780000000000000000e+02 2.790000000000000000e+02 2.800000000000000000e+02 2.810000000000000000e+02 2.820000000000000000e+02 2.830000000000000000e+02 2.840000000000000000e+02 2.850000000000000000e+02 2.860000000000000000e+02 2.870000000000000000e+02 2.880000000000000000e+02 2.890000000000000000e+02 2.900000000000000000e+02 2.910000000000000000e+02 2.920000000000000000e+02 2.930000000000000000e+02 2.940000000000000000e+02 2.950000000000000000e+02 2.960000000000000000e+02 2.970000000000000000e+02 2.980000000000000000e+02 2.990000000000000000e+02 3.000000000000000000e+02 3.010000000000000000e+02 3.020000000000000000e+02 3.030000000000000000e+02 3.040000000000000000e+02 3.050000000000000000e+02 3.060000000000000000e+02 3.070000000000000000e+02 3.080000000000000000e+02 3.090000000000000000e+02 3.100000000000000000e+02 3.110000000000000000e+02 3.120000000000000000e+02 3.130000000000000000e+02 3.140000000000000000e+02 3.150000000000000000e+02 3.160000000000000000e+02 3.170000000000000000e+02 3.180000000000000000e+02 3.190000000000000000e+02 3.200000000000000000e+02 3.210000000000000000e+02 3.220000000000000000e+02 3.230000000000000000e+02 3.240000000000000000e+02 3.250000000000000000e+02 3.260000000000000000e+02 3.270000000000000000e+02 3.280000000000000000e+02 3.290000000000000000e+02 3.300000000000000000e+02 3.310000000000000000e+02 3.320000000000000000e+02 3.330000000000000000e+02 3.340000000000000000e+02 3.350000000000000000e+02 3.360000000000000000e+02 3.370000000000000000e+02 3.380000000000000000e+02 3.390000000000000000e+02 3.400000000000000000e+02 3.410000000000000000e+02 3.420000000000000000e+02 3.430000000000000000e+02 3.440000000000000000e+02 3.450000000000000000e+02 3.460000000000000000e+02 3.470000000000000000e+02 3.480000000000000000e+02 3.490000000000000000e+02 3.500000000000000000e+02 3.510000000000000000e+02 3.520000000000000000e+02 3.530000000000000000e+02 3.540000000000000000e+02 3.550000000000000000e+02 3.560000000000000000e+02 3.570000000000000000e+02 3.580000000000000000e+02 3.590000000000000000e+02 3.600000000000000000e+02 3.610000000000000000e+02 3.620000000000000000e+02 3.630000000000000000e+02 3.640000000000000000e+02 3.650000000000000000e+02 3.660000000000000000e+02 3.670000000000000000e+02 3.680000000000000000e+02 3.690000000000000000e+02 3.700000000000000000e+02 3.710000000000000000e+02 3.720000000000000000e+02 3.730000000000000000e+02 3.740000000000000000e+02 3.750000000000000000e+02 3.760000000000000000e+02 3.770000000000000000e+02 3.780000000000000000e+02 3.790000000000000000e+02 3.800000000000000000e+02 3.810000000000000000e+02 3.820000000000000000e+02 3.830000000000000000e+02 3.840000000000000000e+02 3.850000000000000000e+02 3.860000000000000000e+02 3.870000000000000000e+02 3.880000000000000000e+02 3.890000000000000000e+02 3.900000000000000000e+02 3.910000000000000000e+02 3.920000000000000000e+02 3.930000000000000000e+02 3.940000000000000000e+02 3.950000000000000000e+02 3.960000000000000000e+02 3.970000000000000000e+02 3.980000000000000000e+02 3.990000000000000000e+02 4.000000000000000000e+02 4.010000000000000000e+02 4.020000000000000000e+02 4.030000000000000000e+02 4.040000000000000000e+02 4.050000000000000000e+02 4.060000000000000000e+02 4.070000000000000000e+02 4.080000000000000000e+02 4.090000000000000000e+02 4.100000000000000000e+02 4.110000000000000000e+02 4.120000000000000000e+02 4.130000000000000000e+02 4.140000000000000000e+02 4.150000000000000000e+02 4.160000000000000000e+02 4.170000000000000000e+02 4.180000000000000000e+02 4.190000000000000000e+02 4.200000000000000000e+02 4.210000000000000000e+02 4.220000000000000000e+02 4.230000000000000000e+02 4.240000000000000000e+02 4.250000000000000000e+02 4.260000000000000000e+02 4.270000000000000000e+02 4.280000000000000000e+02 4.290000000000000000e+02 4.300000000000000000e+02 4.310000000000000000e+02 4.320000000000000000e+02 4.330000000000000000e+02 4.340000000000000000e+02 4.350000000000000000e+02 4.360000000000000000e+02 4.370000000000000000e+02 4.380000000000000000e+02 4.390000000000000000e+02 4.400000000000000000e+02 4.410000000000000000e+02 4.420000000000000000e+02 4.430000000000000000e+02 4.440000000000000000e+02 4.450000000000000000e+02 4.460000000000000000e+02 4.470000000000000000e+02 4.480000000000000000e+02 4.490000000000000000e+02 4.500000000000000000e+02 4.510000000000000000e+02 4.520000000000000000e+02 4.530000000000000000e+02 4.540000000000000000e+02 4.550000000000000000e+02 4.560000000000000000e+02 4.570000000000000000e+02 4.580000000000000000e+02 4.590000000000000000e+02 4.600000000000000000e+02 4.610000000000000000e+02 4.620000000000000000e+02 4.630000000000000000e+02 4.640000000000000000e+02 4.650000000000000000e+02 4.660000000000000000e+02 4.670000000000000000e+02 4.680000000000000000e+02 4.690000000000000000e+02 4.700000000000000000e+02 4.710000000000000000e+02 4.720000000000000000e+02 4.730000000000000000e+02 4.740000000000000000e+02 4.750000000000000000e+02 4.760000000000000000e+02 4.770000000000000000e+02 4.780000000000000000e+02 4.790000000000000000e+02 4.800000000000000000e+02 4.810000000000000000e+02 4.820000000000000000e+02 4.830000000000000000e+02 4.840000000000000000e+02 4.850000000000000000e+02 4.860000000000000000e+02 4.870000000000000000e+02 4.880000000000000000e+02 4.890000000000000000e+02 4.900000000000000000e+02 4.910000000000000000e+02 4.920000000000000000e+02 4.930000000000000000e+02 4.940000000000000000e+02 4.950000000000000000e+02 4.960000000000000000e+02 4.970000000000000000e+02 4.980000000000000000e+02 4.990000000000000000e+02 5.000000000000000000e+02 5.010000000000000000e+02 5.020000000000000000e+02 5.030000000000000000e+02 5.040000000000000000e+02 5.050000000000000000e+02 5.060000000000000000e+02 5.070000000000000000e+02 5.080000000000000000e+02 5.090000000000000000e+02 5.100000000000000000e+02 5.110000000000000000e+02 5.120000000000000000e+02 5.130000000000000000e+02 5.140000000000000000e+02 5.150000000000000000e+02 5.160000000000000000e+02 5.170000000000000000e+02 5.180000000000000000e+02 5.190000000000000000e+02 5.200000000000000000e+02 5.210000000000000000e+02 5.220000000000000000e+02 5.230000000000000000e+02 5.240000000000000000e+02 5.250000000000000000e+02 5.260000000000000000e+02 5.270000000000000000e+02 5.280000000000000000e+02 5.290000000000000000e+02 5.300000000000000000e+02 5.310000000000000000e+02 5.320000000000000000e+02 5.330000000000000000e+02 5.340000000000000000e+02 5.350000000000000000e+02 5.360000000000000000e+02 5.370000000000000000e+02 5.380000000000000000e+02 5.390000000000000000e+02 5.400000000000000000e+02 5.410000000000000000e+02 5.420000000000000000e+02 5.430000000000000000e+02 5.440000000000000000e+02 5.450000000000000000e+02 5.460000000000000000e+02 5.470000000000000000e+02 5.480000000000000000e+02 5.490000000000000000e+02 5.500000000000000000e+02 5.510000000000000000e+02 5.520000000000000000e+02 5.530000000000000000e+02 5.540000000000000000e+02 5.550000000000000000e+02 5.560000000000000000e+02 5.570000000000000000e+02 5.580000000000000000e+02 5.590000000000000000e+02 5.600000000000000000e+02 5.610000000000000000e+02 5.620000000000000000e+02 5.630000000000000000e+02 5.640000000000000000e+02 5.650000000000000000e+02 5.660000000000000000e+02 5.670000000000000000e+02 5.680000000000000000e+02 5.690000000000000000e+02 5.700000000000000000e+02 5.710000000000000000e+02 5.720000000000000000e+02 5.730000000000000000e+02 5.740000000000000000e+02 5.750000000000000000e+02 5.760000000000000000e+02 5.770000000000000000e+02 5.780000000000000000e+02 5.790000000000000000e+02 5.800000000000000000e+02 5.810000000000000000e+02 5.820000000000000000e+02 5.830000000000000000e+02 5.840000000000000000e+02 5.850000000000000000e+02 5.860000000000000000e+02 5.870000000000000000e+02 5.880000000000000000e+02 5.890000000000000000e+02 5.900000000000000000e+02 5.910000000000000000e+02 5.920000000000000000e+02 5.930000000000000000e+02 5.940000000000000000e+02 5.950000000000000000e+02 5.960000000000000000e+02 5.970000000000000000e+02 5.980000000000000000e+02 5.990000000000000000e+02 6.000000000000000000e+02 6.010000000000000000e+02 6.020000000000000000e+02 6.030000000000000000e+02 6.040000000000000000e+02 6.050000000000000000e+02 6.060000000000000000e+02 6.070000000000000000e+02 6.080000000000000000e+02 6.090000000000000000e+02 6.100000000000000000e+02 6.110000000000000000e+02 6.120000000000000000e+02 6.130000000000000000e+02 6.140000000000000000e+02 6.150000000000000000e+02 6.160000000000000000e+02 6.170000000000000000e+02 6.180000000000000000e+02 6.190000000000000000e+02 6.200000000000000000e+02 6.210000000000000000e+02 6.220000000000000000e+02 6.230000000000000000e+02 6.240000000000000000e+02 6.250000000000000000e+02 6.260000000000000000e+02 6.270000000000000000e+02 6.280000000000000000e+02 6.290000000000000000e+02 6.300000000000000000e+02 6.310000000000000000e+02 6.320000000000000000e+02 6.330000000000000000e+02 6.340000000000000000e+02 6.350000000000000000e+02 6.360000000000000000e+02 6.370000000000000000e+02 6.380000000000000000e+02 6.390000000000000000e+02 6.400000000000000000e+02 6.410000000000000000e+02 6.420000000000000000e+02 6.430000000000000000e+02 6.440000000000000000e+02 6.450000000000000000e+02 6.460000000000000000e+02 6.470000000000000000e+02 6.480000000000000000e+02 6.490000000000000000e+02 6.500000000000000000e+02 6.510000000000000000e+02 6.520000000000000000e+02 6.530000000000000000e+02 6.540000000000000000e+02 6.550000000000000000e+02 6.560000000000000000e+02 6.570000000000000000e+02 6.580000000000000000e+02 6.590000000000000000e+02 6.600000000000000000e+02 6.610000000000000000e+02 6.620000000000000000e+02 6.630000000000000000e+02 6.640000000000000000e+02 6.650000000000000000e+02 6.660000000000000000e+02 6.670000000000000000e+02 6.680000000000000000e+02 6.690000000000000000e+02 6.700000000000000000e+02 6.710000000000000000e+02 6.720000000000000000e+02 6.730000000000000000e+02 6.740000000000000000e+02 6.750000000000000000e+02 6.760000000000000000e+02 6.770000000000000000e+02 6.780000000000000000e+02 6.790000000000000000e+02 6.800000000000000000e+02 6.810000000000000000e+02 6.820000000000000000e+02 6.830000000000000000e+02 6.840000000000000000e+02 6.850000000000000000e+02 6.860000000000000000e+02 6.870000000000000000e+02 6.880000000000000000e+02 6.890000000000000000e+02 6.900000000000000000e+02 6.910000000000000000e+02 6.920000000000000000e+02 6.930000000000000000e+02 6.940000000000000000e+02 6.950000000000000000e+02 6.960000000000000000e+02 6.970000000000000000e+02 6.980000000000000000e+02 6.990000000000000000e+02 7.000000000000000000e+02 7.010000000000000000e+02 7.020000000000000000e+02 7.030000000000000000e+02 7.040000000000000000e+02 7.050000000000000000e+02 7.060000000000000000e+02 7.070000000000000000e+02 7.080000000000000000e+02 7.090000000000000000e+02 7.100000000000000000e+02 7.110000000000000000e+02 7.120000000000000000e+02 7.130000000000000000e+02 7.140000000000000000e+02 7.150000000000000000e+02 7.160000000000000000e+02 7.170000000000000000e+02 7.180000000000000000e+02 7.190000000000000000e+02 7.200000000000000000e+02 7.210000000000000000e+02 7.220000000000000000e+02 7.230000000000000000e+02 7.240000000000000000e+02 7.250000000000000000e+02 7.260000000000000000e+02 7.270000000000000000e+02 7.280000000000000000e+02 7.290000000000000000e+02 7.300000000000000000e+02 7.310000000000000000e+02 7.320000000000000000e+02 7.330000000000000000e+02 7.340000000000000000e+02 7.350000000000000000e+02 7.360000000000000000e+02 7.370000000000000000e+02 7.380000000000000000e+02 7.390000000000000000e+02 7.400000000000000000e+02 7.410000000000000000e+02 7.420000000000000000e+02 7.430000000000000000e+02 7.440000000000000000e+02 7.450000000000000000e+02 7.460000000000000000e+02 7.470000000000000000e+02 7.480000000000000000e+02 7.490000000000000000e+02 7.500000000000000000e+02 7.510000000000000000e+02 7.520000000000000000e+02 7.530000000000000000e+02 7.540000000000000000e+02 7.550000000000000000e+02 7.560000000000000000e+02 7.570000000000000000e+02 7.580000000000000000e+02 7.590000000000000000e+02 7.600000000000000000e+02 7.610000000000000000e+02 7.620000000000000000e+02 7.630000000000000000e+02 7.640000000000000000e+02 7.650000000000000000e+02 7.660000000000000000e+02 7.670000000000000000e+02 7.680000000000000000e+02 7.690000000000000000e+02 7.700000000000000000e+02 7.710000000000000000e+02 7.720000000000000000e+02 7.730000000000000000e+02 7.740000000000000000e+02 7.750000000000000000e+02 7.760000000000000000e+02 7.770000000000000000e+02 7.780000000000000000e+02 7.790000000000000000e+02 7.800000000000000000e+02 7.810000000000000000e+02 7.820000000000000000e+02 7.830000000000000000e+02 7.840000000000000000e+02 7.850000000000000000e+02 7.860000000000000000e+02 7.870000000000000000e+02 7.880000000000000000e+02 7.890000000000000000e+02 7.900000000000000000e+02 7.910000000000000000e+02 7.920000000000000000e+02 7.930000000000000000e+02 7.940000000000000000e+02 7.950000000000000000e+02 7.960000000000000000e+02 7.970000000000000000e+02 7.980000000000000000e+02 7.990000000000000000e+02 8.000000000000000000e+02 8.010000000000000000e+02 8.020000000000000000e+02 8.030000000000000000e+02 8.040000000000000000e+02 8.050000000000000000e+02 8.060000000000000000e+02 8.070000000000000000e+02 8.080000000000000000e+02 8.090000000000000000e+02 8.100000000000000000e+02 8.110000000000000000e+02 8.120000000000000000e+02 8.130000000000000000e+02 8.140000000000000000e+02 8.150000000000000000e+02 8.160000000000000000e+02 8.170000000000000000e+02 8.180000000000000000e+02 8.190000000000000000e+02 8.200000000000000000e+02 8.210000000000000000e+02 8.220000000000000000e+02 8.230000000000000000e+02 8.240000000000000000e+02 8.250000000000000000e+02 8.260000000000000000e+02 8.270000000000000000e+02 8.280000000000000000e+02 8.290000000000000000e+02 8.300000000000000000e+02 8.310000000000000000e+02 8.320000000000000000e+02 8.330000000000000000e+02 8.340000000000000000e+02 8.350000000000000000e+02 8.360000000000000000e+02 8.370000000000000000e+02 8.380000000000000000e+02 8.390000000000000000e+02 8.400000000000000000e+02 8.410000000000000000e+02 8.420000000000000000e+02 8.430000000000000000e+02 8.440000000000000000e+02 8.450000000000000000e+02 8.460000000000000000e+02 8.470000000000000000e+02 8.480000000000000000e+02 8.490000000000000000e+02 8.500000000000000000e+02 8.510000000000000000e+02 8.520000000000000000e+02 8.530000000000000000e+02 8.540000000000000000e+02 8.550000000000000000e+02 8.560000000000000000e+02 8.570000000000000000e+02 8.580000000000000000e+02 8.590000000000000000e+02 8.600000000000000000e+02 8.610000000000000000e+02 8.620000000000000000e+02 8.630000000000000000e+02 8.640000000000000000e+02 8.650000000000000000e+02 8.660000000000000000e+02 8.670000000000000000e+02 8.680000000000000000e+02 8.690000000000000000e+02 8.700000000000000000e+02 8.710000000000000000e+02 8.720000000000000000e+02 8.730000000000000000e+02 8.740000000000000000e+02 8.750000000000000000e+02 8.760000000000000000e+02 8.770000000000000000e+02 8.780000000000000000e+02 8.790000000000000000e+02 8.800000000000000000e+02 8.810000000000000000e+02 8.820000000000000000e+02 8.830000000000000000e+02 8.840000000000000000e+02 8.850000000000000000e+02 8.860000000000000000e+02 8.870000000000000000e+02 8.880000000000000000e+02 8.890000000000000000e+02 8.900000000000000000e+02 8.910000000000000000e+02 8.920000000000000000e+02 8.930000000000000000e+02 8.940000000000000000e+02 8.950000000000000000e+02 8.960000000000000000e+02 8.970000000000000000e+02 8.980000000000000000e+02 8.990000000000000000e+02 9.000000000000000000e+02 9.010000000000000000e+02 9.020000000000000000e+02 9.030000000000000000e+02 9.040000000000000000e+02 9.050000000000000000e+02 9.060000000000000000e+02 9.070000000000000000e+02 9.080000000000000000e+02 9.090000000000000000e+02 9.100000000000000000e+02 9.110000000000000000e+02 9.120000000000000000e+02 9.130000000000000000e+02 9.140000000000000000e+02 9.150000000000000000e+02 9.160000000000000000e+02 9.170000000000000000e+02 9.180000000000000000e+02 9.190000000000000000e+02 9.200000000000000000e+02 9.210000000000000000e+02 9.220000000000000000e+02 9.230000000000000000e+02 9.240000000000000000e+02 9.250000000000000000e+02 9.260000000000000000e+02 9.270000000000000000e+02 9.280000000000000000e+02 9.290000000000000000e+02 9.300000000000000000e+02 9.310000000000000000e+02 9.320000000000000000e+02 9.330000000000000000e+02 9.340000000000000000e+02 9.350000000000000000e+02 9.360000000000000000e+02 9.370000000000000000e+02 9.380000000000000000e+02 9.390000000000000000e+02 9.400000000000000000e+02 9.410000000000000000e+02 9.420000000000000000e+02 9.430000000000000000e+02 9.440000000000000000e+02 9.450000000000000000e+02 9.460000000000000000e+02 9.470000000000000000e+02 9.480000000000000000e+02 9.490000000000000000e+02 9.500000000000000000e+02 9.510000000000000000e+02 9.520000000000000000e+02 9.530000000000000000e+02 9.540000000000000000e+02 9.550000000000000000e+02 9.560000000000000000e+02 9.570000000000000000e+02 9.580000000000000000e+02 9.590000000000000000e+02 9.600000000000000000e+02 9.610000000000000000e+02 9.620000000000000000e+02 9.630000000000000000e+02 9.640000000000000000e+02 9.650000000000000000e+02 9.660000000000000000e+02 9.670000000000000000e+02 9.680000000000000000e+02 9.690000000000000000e+02 9.700000000000000000e+02 9.710000000000000000e+02 9.720000000000000000e+02 9.730000000000000000e+02 9.740000000000000000e+02 9.750000000000000000e+02 9.760000000000000000e+02 9.770000000000000000e+02 9.780000000000000000e+02 9.790000000000000000e+02 9.800000000000000000e+02 9.810000000000000000e+02 9.820000000000000000e+02 9.830000000000000000e+02 9.840000000000000000e+02 9.850000000000000000e+02 9.860000000000000000e+02 9.870000000000000000e+02 9.880000000000000000e+02 9.890000000000000000e+02 9.900000000000000000e+02 9.910000000000000000e+02 9.920000000000000000e+02 9.930000000000000000e+02 9.940000000000000000e+02 9.950000000000000000e+02 9.960000000000000000e+02 9.970000000000000000e+02 9.980000000000000000e+02 9.990000000000000000e+02 1.000000000000000000e+03
1.000000000000000021e-02 1.000000000000000021e-02 1.000000000000000021e-02 1.000000000000000021e-02 1.000000000000000021e-02 1.000000000000000021e-02 1.000000000000000021e-02 1.000000000000000021e-02 1.000000000000000021e-02 1.000000000000000021e-02 1.000000000000000021e-02 1.000000000000000021e-02 1.000000000000000021e-02 1.000000000000000021e-02 1.000000000000000021e-02 1.000000000000000021e-02 1.000000000000000021e-02 1.000000000000000021e-02 1.000000000000000021e-02 1.000000000000000021e-02 1.000000000000000021e-02 1.000000000000000021e-02 1.000000000000000021e-02 1.000000000000000021e-02 1.000000000000000021e-02 1.000000000000000021e-02 1.000000000000000021e-02 1.000000000000000021e-02 1.000000000000000021e-02 1.000000000000000021e-02 1.000000000000000021e-02 1.000000000000000021e-02 1.000000000000000021e-02 1.000000000000000021e-02 1.000000000000000021e-02 1.000000000000000021e-02 1.000000000000000021e-02 1.000000000000000021e-02 1.000000000000000021e-02 1.000000000000000021e-02 1.000000000000000021e-02 1.000000000000000021e-02 1.000000000000000021e-02 1.000000000000000021e-02 1.000000000000000021e-02 1.000000000000000021e-02 1.000000000000000021e-02 1.000000000000000021e-02 1.000000000000000021e-02 1.000000000000000021e-02 1.000000000000000021e-02 1.000000000000000021e-02 1.000000000000000021e-02 1.000000000000000021e-02 1.000000000000000021e-02 1.000000000000000021e-02 1.000000000000000021e-02 1.000000000000000021e-02 1.000000000000000021e-02 1.000000000000000021e-02 1.000000000000000021e-02 1.000000000000000021e-02 1.000000000000000021e-02 1.000000000000000021e-02 1.000000000000000021e-02 1.000000000000000021e-02 1.000000000000000021e-02 1.000000000000000021e-02 1.000000000000000021e-02 1.000000000000000021e-02 1.000000000000000021e-02 1.000000000000000021e-02 1.000000000000000021e-02 1.000000000000000021e-02 1.000000000000000021e-02 1.000000000000000021e-02 1.000000000000000021e-02 1.000000000000000021e-02 1.000000000000000021e-02 1.000000000000000021e-02 1.000000000000000021e-02 1.000000000000000021e-02 1.000000000000000021e-02 1.000000000000000021e-02 1.000000000000000021e-02 1.000000000000000021e-02 1.000000000000000021e-02 1.000000000000000021e-02 1.000000000000000021e-02 1.000000000000000021e-02 1.000000000000000021e-02 1.000000000000000021e-02 1.000000000000000021e-02 1.000000000000000021e-02 1.000000000000000021e-02 1.000000000000000021e-02 1.000000000000000021e-02 1.000000000000000021e-02 1.000000000000000021e-02 1.000000000000000021e-02 1.000000000000000021e-02 1.000000000000000021e-02 1.000000000000000021e-02 1.000000000000000021e-02 1.000000000000000021e-02 1.000000000000000021e-02 1.000000000000000021e-02 1.000000000000000021e-02 1.000000000000000021e-02 1.000000000000000021e-02 1.000000000000000021e-02 1.000000000000000021e-02 1.000000000000000021e-02 1.000000000000000021e-02 1.000000000000000021e-02 1.000000000000000021e-02 1.000000000000000021e-02 1.000000000000000021e-02 1.000000000000000021e-02 1.000000000000000021e-02 1.000000000000000021e-02 1.000000000000000021e-02 1.000000000000000021e-02 1.000000000000000021e-02 1.000000000000000021e-02 1.000000000000000021e-02 1.000000000000000021e-02 1.000000000000000021e-02 1.000000000000000021e-02 1.000000000000000021e-02 1.000000000000000021e-02 1.000000000000000021e-02 1.000000000000000021e-02 1.000000000000000021e-02 1.000000000000000021e-02 1.000000000000000021e-02 1.000000000000000021e-02 1.000000000000000021e-02 1.000000000000000021e-02 1.000000000000000021e-02 1.000000000000000021e-02 1.000000000000000021e-02 1.000000000000000021e-02 1.000000000000000021e-02 1.000000000000000021e-02 1.000000000000000021e-02 1.000000000000000021e-02 1.000000000000000021e-02 1.000000000000000021e-02 1.000000000000000021e-02 1.000000000000000021e-02 1.000000000000000021e-02 1.000000000000000021e-02 1.000000000000000021e-02 1.000000000000000021e-02 1.000000000000000021e-02 1.000000000000000021e-02 1.000000000000000021e-02 1.000000000000000021e-02 1.000000000000000021e-02 1.000000000000000021e-02 1.000000000000000021e-02 1.000000000000000021e-02 1.000000000000000021e-02 1.000000000000000021e-02 1.000000000000000021e-02 1.000000000000000021e-02 1.000000000000000021e-02 1.000000000000000021e-02 1.000000000000000021e-02 1.000000000000000021e-02 1.000000000000000021e-02 1.000000000000000021e-02 1.000000000000000021e-02 1.000000000000000021e-02 1.000000000000000021e-02 1.000000000000000021e-02 1.000000000000000021e-02 1.000000000000000021e-02 1.000000000000000021e-02 1.000000000000000021e-02 1.000000000000000021e-02 1.000000000000000021e-02 1.000000000000000021e-02 1.000000000000000021e-02 1.000000000000000021e-02 1.000000000000000021e-02 1.000000000000000021e-02 1.000000000000000021e-02 1.000000000000000021e-02 1.000000000000000021e-02 1.000000000000000021e-02 1.000000000000000021e-02 1.000000000000000021e-02 1.000000000000000021e-02 1.000000000000000021e-02 1.000000000000000021e-02 1.000000000000000021e-02 1.000000000000000021e-02 1.000000000000000021e-02 1.000000000000000021e-02 1.000000000000000021e-02 1.000000000000000021e-02 1.000000000000000021e-02 1.000000000000000021e-02 1.000000000000000021e-02 1.000000000000000021e-02 1.000000000000000021e-02 1.000000000000000021e-02 1.000000000000000021e-02 1.000000000000000021e-02 1.000000000000000021e-02 1.000000000000000021e-02 1.000000000000000021e-02 1.000000000000000021e-02 1.000000000000000021e-02 1.000000000000000021e-02 1.000000000000000021e-02 1.000000000000000021e-02 1.000000000000000021e-02 1.000000000000000021e-02 1.000000000000000021e-02 1.000000000000000021e-02 1.000000000000000021e-02 1.000000000000000021e-02 1.000000000000000021e-02 1.000000000000000021e-02 1.000000000000000021e-02 1.000000000000000021e-02 1.000000000000000021e-02 1.000000000000000021e-02 1.000000000000000021e-02 1.000000000000000021e-02 1.000000000000000021e-02 1.000000000000000021e-02 1.000000000000000021e-02 1.000000000000000021e-02 1.000000000000000021e-02 1.000000000000000021e-02 1.000000000000000021e-02 1.000000000000000021e-02 1.000000000000000021e-02 1.000000000000000021e-02 1.000000000000000021e-02 1.000000000000000021e-02 1.000000000000000021e-02 1.000000000000000021e-02 1.000000000000000021e-02 1.000000000000000021e-02 1.000000000000000021e-02 1.000000000000000021e-02 1.000000000000000021e-02 1.000000000000000021e-02 1.000000000000000021e-02 1.000000000000000021e-02 1.000000000000000021e-02 1.000000000000000021e-02 1.000000000000000021e-02 1.000000000000000021e-02 1.000000000000000021e-02 1.000000000000000021e-02 1.000000000000000021e-02 1.000000000000000021e-02 1.000000000000000021e-02 1.000000000000000021e-02 1.000000000000000021e-02 1.000000000000000021e-02 1.000000000000000021e-02 1.000000000000000021e-02 1.000000000000000021e-02 1.000000000000000021e-02 1.000000000000000021e-02 1.000000000000000021e-02 1.000000000000000021e-02 1.000000000000000021e-02 1.000000000000000021e-02 1.000000000000000021e-02 1.000000000000000021e-02 1.000000000000000021e-02 1.000000000000000021e-02 1.000000000000000021e-02 1.000000000000000021e-02 1.000000000000000021e-02 1.000000000000000021e-02 1.000000000000000021e-02 1.000000000000000021e-02 1.000000000000000021e-02 1.000000000000000021e-02 1.000000000000000021e-02 1.000000000000000021e-02 1.000000000000000021e-02 1.000000000000000021e-02 1.000000000000000021e-02 1.000000000000000021e-02 1.000000000000000021e-02 1.000000000000000021e-02 1.000000000000000021e-02 1.000000000000000021e-02 1.000000000000000021e-02 1.000000000000000021e-02 1.000000000000000021e-02 1.000000000000000021e-02 1.000000000000000021e-02 1.000000000000000021e-02 1.000000000000000021e-02 1.000000000000000021e-02 1.000000000000000021e-02 1.000000000000000021e-02 1.000000000000000021e-02 1.000000000000000021e-02 1.000000000000000021e-02 1.000000000000000021e-02 1.000000000000000021e-02 1.000000000000000021e-02 1.000000000000000021e-02 1.000000000000000021e-02 1.000000000000000021e-02 1.000000000000000021e-02 1.000000000000000021e-02 1.000000000000000021e-02 1.000000000000000021e-02 1.000000000000000021e-02 1.000000000000000021e-02 1.000000000000000021e-02 1.000000000000000021e-02 1.000000000000000021e-02 1.000000000000000021e-02 1.000000000000000021e-02 1.000000000000000021e-02 1.000000000000000021e-02 1.000000000000000021e-02 1.000000000000000021e-02 1.000000000000000021e-02 1.000000000000000021e-02 1.000000000000000021e-02 1.000000000000000021e-02 1.000000000000000021e-02 1.000000000000000021e-02 1.000000000000000021e-02 1.000000000000000021e-02 1.000000000000000021e-02 1.000000000000000021e-02 1.000000000000000021e-02 1.000000000000000021e-02 1.000000000000000021e-02 1.000000000000000021e-02 1.000000000000000021e-02 1.000000000000000021e-02 1.000000000000000021e-02 1.000000000000000021e-02 1.000000000000000021e-02 1.000000000000000021e-02 1.000000000000000021e-02 1.000000000000000021e-02 1.000000000000000021e-02 1.000000000000000021e-02 1.000000000000000021e-02 1.000000000000000021e-02 1.000000000000000021e-02 1.000000000000000021e-02 1.000000000000000021e-02 1.000000000000000021e-02 1.000000000000000021e-02 1.000000000000000021e-02 1.000000000000000021e-02 1.000000000000000021e-02 1.000000000000000021e-02 1.000000000000000021e-02 1.000000000000000021e-02 1.000000000000000021e-02 1.000000000000000021e-02 1.000000000000000021e-02 1.000000000000000021e-02 1.000000000000000021e-02 1.000000000000000021e-02 1.000000000000000021e-02 1.000000000000000021e-02 1.000000000000000021e-02 1.000000000000000021e-02 1.000000000000000021e-02 1.000000000000000021e-02 1.000000000000000021e-02 1.000000000000000021e-02 1.000000000000000021e-02 1.000000000000000021e-02 1.000000000000000021e-02 1.000000000000000021e-02 1.000000000000000021e-02 1.000000000000000021e-02 1.000000000000000021e-02 1.000000000000000021e-02 1.000000000000000021e-02 1.000000000000000021e-02 1.000000000000000021e-02 1.000000000000000021e-02 1.000000000000000021e-02 1.000000000000000021e-02 1.000000000000000021e-02 1.000000000000000021e-02 1.000000000000000021e-02 1.000000000000000021e-02 1.000000000000000021e-02 1.000000000000000021e-02 1.000000000000000021e-02 1.000000000000000021e-02 1.000000000000000021e-02 1.000000000000000021e-02 1.000000000000000021e-02 1.000000000000000021e-02 1.000000000000000021e-02 1.000000000000000021e-02 1.000000000000000021e-02 1.000000000000000021e-02 1.000000000000000021e-02 1.000000000000000021e-02 1.000000000000000021e-02 1.000000000000000021e-02 1.000000000000000021e-02 1.000000000000000021e-02 1.000000000000000021e-02 1.000000000000000021e-02 1.000000000000000021e-02 1.000000000000000021e-02 1.000000000000000021e-02 1.000000000000000021e-02 1.000000000000000021e-02 1.000000000000000021e-02 1.000000000000000021e-02 1.000000000000000021e-02 1.000000000000000021e-02 1.000000000000000021e-02 1.000000000000000021e-02 1.000000000000000021e-02 1.000000000000000021e-02 1.000000000000000021e-02 1.000000000000000021e-02 1.000000000000000021e-02 1.000000000000000021e-02 1.000000000000000021e-02 1.000000000000000021e-02 1.000000000000000021e-02 1.000000000000000021e-02 1.000000000000000021e-02 1.000000000000000021e-02 1.000000000000000021e-02 1.000000000000000021e-02 1.000000000000000021e-02 1.000000000000000021e-02 1.000000000000000021e-02 1.000000000000000021e-02 1.000000000000000021e-02 1.000000000000000021e-02 1.000000000000000021e-02 1.000000000000000021e-02 1.000000000000000021e-02 1.000000000000000021e-02 1.000000000000000021e-02 1.000000000000000021e-02 1.000000000000000021e-02 1.000000000000000021e-02 1.000000000000000021e-02 1.000000000000000021e-02 1.000000000000000021e-02 1.000000000000000021e-02 1.000000000000000021e-02 1.000000000000000021e-02 1.000000000000000021e-02 1.000000000000000021e-02 1.000000000000000021e-02 1.000000000000000021e-02 1.000000000000000021e-02 1.000000000000000021e-02 1.000000000000000021e-02 1.000000000000000021e-02 1.000000000000000021e-02 1.000000000000000021e-02 1.000000000000000021e-02 1.000000000000000021e-02 1.000000000000000021e-02 1.000000000000000021e-02 1.000000000000000021e-02 1.000000000000000021e-02 1.000000000000000021e-02 1.000000000000000021e-02 1.000000000000000021e-02 1.000000000000000021e-02 1.000000000000000021e-02 1.000000000000000021e-02 1.000000000000000021e-02 1.000000000000000021e-02 1.000000000000000021e-02 1.000000000000000021e-02 1.000000000000000021e-02 1.000000000000000021e-02 1.000000000000000021e-02 1.000000000000000021e-02 1.000000000000000021e-02 1.000000000000000021e-02 1.000000000000000021e-02 1.000000000000000021e-02 1.000000000000000021e-02 1.000000000000000021e-02 1.000000000000000021e-02 1.000000000000000021e-02 1.000000000000000021e-02 1.000000000000000021e-02 1.000000000000000021e-02 1.000000000000000021e-02 1.000000000000000021e-02 1.000000000000000021e-02 1.000000000000000021e-02 1.000000000000000021e-02 1.000000000000000021e-02 1.000000000000000021e-02 1.000000000000000021e-02 1.000000000000000021e-02 1.000000000000000021e-02 1.000000000000000021e-02 1.000000000000000021e-02 1.000000000000000021e-02 1.000000000000000021e-02 1.000000000000000021e-02 1.000000000000000021e-02 1.000000000000000021e-02 1.000000000000000021e-02 1.000000000000000021e-02 1.000000000000000021e-02 1.000000000000000021e-02 1.000000000000000021e-02 1.000000000000000021e-02 1.000000000000000021e-02 1.000000000000000021e-02 1.000000000000000021e-02 1.000000000000000021e-02 1.000000000000000021e-02 1.000000000000000021e-02 1.000000000000000021e-02 1.000000000000000021e-02 1.000000000000000021e-02 1.000000000000000021e-02 1.000000000000000021e-02 1.000000000000000021e-02 1.000000000000000021e-02 1.000000000000000021e-02 1.000000000000000021e-02 1.000000000000000021e-02 1.000000000000000021e-02 1.000000000000000021e-02 1.000000000000000021e-02 1.000000000000000021e-02 1.000000000000000021e-02 1.000000000000000021e-02 1.000000000000000021e-02 1.000000000000000021e-02 1.000000000000000021e-02 1.000000000000000021e-02 1.000000000000000021e-02 1.000000000000000021e-02 1.000000000000000021e-02 1.000000000000000021e-02 1.000000000000000021e-02 1.000000000000000021e-02 1.000000000000000021e-02 1.000000000000000021e-02 1.000000000000000021e-02 1.000000000000000021e-02 1.000000000000000021e-02 1.000000000000000021e-02 1.000000000000000021e-02 1.000000000000000021e-02 1.000000000000000021e-02 1.000000000000000021e-02 1.000000000000000021e-02 1.000000000000000021e-02 1.000000000000000021e-02 1.000000000000000021e-02 1.000000000000000021e-02 1.000000000000000021e-02 1.000000000000000021e-02 1.000000000000000021e-02 1.000000000000000021e-02 1.000000000000000021e-02 1.000000000000000021e-02 1.000000000000000021e-02 1.000000000000000021e-02 1.000000000000000021e-02 1.000000000000000021e-02 1.000000000000000021e-02 1.000000000000000021e-02 1.000000000000000021e-02 1.000000000000000021e-02 1.000000000000000021e-02 1.000000000000000021e-02 1.000000000000000021e-02 1.000000000000000021e-02 1.000000000000000021e-02 1.000000000000000021e-02 1.000000000000000021e-02 1.000000000000000021e-02 1.000000000000000021e-02 1.000000000000000021e-02 1.000000000000000021e-02 1.000000000000000021e-02 1.000000000000000021e-02 1.000000000000000021e-02 1.000000000000000021e-02 1.000000000000000021e-02 1.000000000000000021e-02 1.000000000000000021e-02 1.000000000000000021e-02 1.000000000000000021e-02 1.000000000000000021e-02 1.000000000000000021e-02 1.000000000000000021e-02 1.000000000000000021e-02 1.000000000000000021e-02 1.000000000000000021e-02 1.000000000000000021e-02 1.000000000000000021e-02 1.000000000000000021e-02 1.000000000000000021e-02 1.000000000000000021e-02 1.000000000000000021e-02 1.000000000000000021e-02 1.000000000000000021e-02 1.000000000000000021e-02 1.000000000000000021e-02 1.000000000000000021e-02 1.000000000000000021e-02 1.000000000000000021e-02 1.000000000000000021e-02 1.000000000000000021e-02 1.000000000000000021e-02 1.000000000000000021e-02 1.000000000000000021e-02 1.000000000000000021e-02 1.000000000000000021e-02 1.000000000000000021e-02 1.000000000000000021e-02 1.000000000000000021e-02 1.000000000000000021e-02 1.000000000000000021e-02 1.000000000000000021e-02 1.000000000000000021e-02 1.000000000000000021e-02 1.000000000000000021e-02 1.000000000000000021e-02 1.000000000000000021e-02 1.000000000000000021e-02 1.000000000000000021e-02 1.000000000000000021e-02 1.000000000000000021e-02 1.000000000000000021e-02 1.000000000000000021e-02 1.000000000000000021e-02 1.000000000000000021e-02 1.000000000000000021e-02 1.000000000000000021e-02 1.000000000000000021e-02 1.000000000000000021e-02 1.000000000000000021e-02 1.000000000000000021e-02 1.000000000000000021e-02 1.000000000000000021e-02 1.000000000000000021e-02 1.000000000000000021e-02 1.000000000000000021e-02 1.000000000000000021e-02 1.000000000000000021e-02 1.000000000000000021e-02 1.000000000000000021e-02 1.000000000000000021e-02 1.000000000000000021e-02 1.000000000000000021e-02 1.000000000000000021e-02 1.000000000000000021e-02 1.000000000000000021e-02 1.000000000000000021e-02 1.000000000000000021e-02 1.000000000000000021e-02 1.000000000000000021e-02 1.000000000000000021e-02 1.000000000000000021e-02 1.000000000000000021e-02 1.000000000000000021e-02 1.000000000000000021e-02 1.000000000000000021e-02 1.000000000000000021e-02 1.000000000000000021e-02 1.000000000000000021e-02 1.000000000000000021e-02 1.000000000000000021e-02 1.000000000000000021e-02 1.000000000000000021e-02 1.000000000000000021e-02 1.000000000000000021e-02 1.000000000000000021e-02 1.000000000000000021e-02 1.000000000000000021e-02 1.000000000000000021e-02 1.000000000000000021e-02 1.000000000000000021e-02 1.000000000000000021e-02 1.000000000000000021e-02 1.000000000000000021e-02 1.000000000000000021e-02 1.000000000000000021e-02 1.000000000000000021e-02 1.000000000000000021e-02 1.000000000000000021e-02 1.000000000000000021e-02 1.000000000000000021e-02 1.000000000000000021e-02 1.000000000000000021e-02 1.000000000000000021e-02 1.000000000000000021e-02 1.000000000000000021e-02 1.000000000000000021e-02 1.000000000000000021e-02 1.000000000000000021e-02 1.000000000000000021e-02 1.000000000000000021e-02 1.000000000000000021e-02 1.000000000000000021e-02 1.000000000000000021e-02 1.000000000000000021e-02 1.000000000000000021e-02 1.000000000000000021e-02 1.000000000000000021e-02 1.000000000000000021e-02 1.000000000000000021e-02 1.000000000000000021e-02 1.000000000000000021e-02 1.000000000000000021e-02 1.000000000000000021e-02 1.000000000000000021e-02 1.000000000000000021e-02 1.000000000000000021e-02 1.000000000000000021e-02 1.000000000000000021e-02 1.000000000000000021e-02 1.000000000000000021e-02 1.000000000000000021e-02 1.000000000000000021e-02 1.000000000000000021e-02 1.000000000000000021e-02 1.000000000000000021e-02 1.000000000000000021e-02 1.000000000000000021e-02 1.000000000000000021e-02 1.000000000000000021e-02 1.000000000000000021e-02 1.000000000000000021e-02 1.000000000000000021e-02 1.000000000000000021e-02 1.000000000000000021e-02 1.000000000000000021e-02 1.000000000000000021e-02 1.000000000000000021e-02 1.000000000000000021e-02 1.000000000000000021e-02 1.000000000000000021e-02 1.000000000000000021e-02 1.000000000000000021e-02 1.000000000000000021e-02 1.000000000000000021e-02 1.000000000000000021e-02 1.000000000000000021e-02 1.000000000000000021e-02 1.000000000000000021e-02 1.000000000000000021e-02 1.000000000000000021e-02 1.000000000000000021e-02 1.000000000000000021e-02 1.000000000000000021e-02 1.000000000000000021e-02 1.000000000000000021e-02 1.000000000000000021e-02 1.000000000000000021e-02 1.000000000000000021e-02 1.000000000000000021e-02 1.000000000000000021e-02 1.000000000000000021e-02 1.000000000000000021e-02 1.000000000000000021e-02 1.000000000000000021e-02 1.000000000000000021e-02 1.000000000000000021e-02 1.000000000000000021e-02 1.000000000000000021e-02 1.000000000000000021e-02 1.000000000000000021e-02 1.000000000000000021e-02 1.000000000000000021e-02 1.000000000000000021e-02 1.000000000000000021e-02 1.000000000000000021e-02 1.000000000000000021e-02 1.000000000000000021e-02 1.000000000000000021e-02 1.000000000000000021e-02 1.000000000000000021e-02 1.000000000000000021e-02 1.000000000000000021e-02 1.000000000000000021e-02 1.000000000000000021e-02 1.000000000000000021e-02 1.000000000000000021e-02 1.000000000000000021e-02 1.000000000000000021e-02 1.000000000000000021e-02 1.000000000000000021e-02 1.000000000000000021e-02 1.000000000000000021e-02 1.000000000000000021e-02 1.000000000000000021e-02 1.000000000000000021e-02 1.000000000000000021e-02 1.000000000000000021e-02 1.000000000000000021e-02 1.000000000000000021e-02 1.000000000000000021e-02 1.000000000000000021e-02 1.000000000000000021e-02 1.000000000000000021e-02 1.000000000000000021e-02 1.000000000000000021e-02 1.000000000000000021e-02 1.000000000000000021e-02 1.000000000000000021e-02 1.000000000000000021e-02 1.000000000000000021e-02 1.000000000000000021e-02 1.000000000000000021e-02 1.000000000000000021e-02 1.000000000000000021e-02 1.000000000000000021e-02 1.000000000000000021e-02 1.000000000000000021e-02 1.000000000000000021e-02 1.000000000000000021e-02 1.000000000000000021e-02 1.000000000000000021e-02 1.000000000000000021e-02 1.000000000000000021e-02 1.000000000000000021e-02 1.000000000000000021e-02 1.000000000000000021e-02 1.000000000000000021e-02 1.000000000000000021e-02 1.000000000000000021e-02 1.000000000000000021e-02 1.000000000000000021e-02 1.000000000000000021e-02 1.000000000000000021e-02 1.000000000000000021e-02 1.000000000000000021e-02 1.000000000000000021e-02 1.000000000000000021e-02 1.000000000000000021e-02 1.000000000000000021e-02 1.000000000000000021e-02 1.000000000000000021e-02 1.000000000000000021e-02 1.000000000000000021e-02 1.000000000000000021e-02 1.000000000000000021e-02 1.000000000000000021e-02 1.000000000000000021e-02 1.000000000000000021e-02 1.000000000000000021e-02 1.000000000000000021e-02 1.000000000000000021e-02 1.000000000000000021e-02 1.000000000000000021e-02 1.000000000000000021e-02 1.000000000000000021e-02 1.000000000000000021e-02 1.000000000000000021e-02 1.000000000000000021e-02 1.000000000000000021e-02 1.000000000000000021e-02 1.000000000000000021e-02 1.000000000000000021e-02 1.000000000000000021e-02 1.000000000000000021e-02 1.000000000000000021e-02 1.000000000000000021e-02 1.000000000000000021e-02 1.000000000000000021e-02 1.000000000000000021e-02 1.000000000000000021e-02 1.000000000000000021e-02 1.000000000000000021e-02 1.000000000000000021e-02 1.000000000000000021e-02 1.000000000000000021e-02 1.000000000000000021e-02 1.000000000000000021e-02 1.000000000000000021e-02 1.000000000000000021e-02 1.000000000000000021e-02 1.000000000000000021e-02 1.000000000000000021e-02 1.000000000000000021e-02 1.000000000000000021e-02 1.000000000000000021e-02 1.000000000000000021e-02 1.000000000000000021e-02 1.000000000000000021e-02 1.000000000000000021e-02 1.000000000000000021e-02 1.000000000000000021e-02 1.000000000000000021e-02 1.000000000000000021e-02 1.000000000000000021e-02 1.000000000000000021e-02 1.000000000000000021e-02 1.000000000000000021e-02 1.000000000000000021e-02 1.000000000000000021e-02 1.000000000000000021e-02 1.000000000000000021e-02 1.000000000000000021e-02 1.000000000000000021e-02 1.000000000000000021e-02 1.000000000000000021e-02 1.000000000000000021e-02 1.000000000000000021e-02 1.000000000000000021e-02 1.000000000000000021e-02 1.000000000000000021e-02 1.000000000000000021e-02 1.000000000000000021e-02 1.000000000000000021e-02 1.000000000000000021e-02 1.000000000000000021e-02 1.000000000000000021e-02 1.000000000000000021e-02 1.000000000000000021e-02 1.000000000000000021e-02 1.000000000000000021e-02 1.000000000000000021e-02 1.000000000000000021e-02 1.000000000000000021e-02 1.000000000000000021e-02 1.000000000000000021e-02 1.000000000000000021e-02 1.000000000000000021e-02 1.000000000000000021e-02 1.000000000000000021e-02 1.000000000000000021e-02 1.000000000000000021e-02 1.000000000000000021e-02 1.000000000000000021e-02 1.000000000000000021e-02 1.000000000000000021e-02 1.000000000000000021e-02 1.000000000000000021e-02 1.000000000000000021e-02 1.000000000000000021e-02 1.000000000000000021e-02 1.000000000000000021e-02 1.000000000000000021e-02 1.000000000000000021e-02 1.000000000000000021e-02 1.000000000000000021e-02 1.000000000000000021e-02 1.000000000000000021e-02 1.000000000000000021e-02 1.000000000000000021e-02 1.000000000000000021e-02 1.000000000000000021e-02 1.000000000000000021e-02 1.000000000000000021e-02 1.000000000000000021e-02 1.000000000000000021e-02 1.000000000000000021e-02 1.000000000000000021e-02 1.000000000000000021e-02 1.000000000000000021e-02 1.000000000000000021e-02 1.000000000000000021e-02 1.000000000000000021e-02 1.000000000000000021e-02 1.000000000000000021e-02 1.000000000000000021e-02 1.000000000000000021e-02 1.000000000000000021e-02 1.000000000000000021e-02 1.000000000000000021e-02 1.000000000000000021e-02 1.000000000000000021e-02 1.000000000000000021e-02 1.000000000000000021e-02 1.000000000000000021e-02 1.000000000000000021e-02 1.000000000000000021e-02 1.000000000000000021e-02 1.000000000000000021e-02
-1.042898570264156319e+02 1.587523815600520436e+02 3.671427308876519646e+01 -8.238760577349259151e+00 -8.217583795291420756e+01 -1.251817536718479218e+01 -1.945453347098113568e+02 6.823681060249515706e-01 -7.918792637137677559e+01 -1.334527564496874419e+01 -1.858466015644942715e+01 6.157470344426582365e+00 -1.668981487806991293e+00 1.569423710131615906e+02 7.916931798983577551e+01 -3.635196746037649262e+01 -4.948088888447595224e+01 7.409953504962633986e+01 3.072148697481062385e+01 -2.375982738393012994e+01 -7.372370429077214737e+01 -6.899506997170095701e+01 -1.288571217742835628e+01 2.706503441721207892e+01 -1.823119522336364184e+02 -9.231406267936306165e+01 -2.441673596946831282e+01 1.885714291502666526e+02 6.619289376066774366e+01 7.184380069438086025e+01 7.512962351658683247e+01 1.099079398416078268e+00 -7.429673524341446011e+01 1.941864510378909472e+02 -2.291650240927993138e+02 5.514354352398167691e+01 -1.122908440828500432e+02 -3.246691437042687767e+01 3.783422631239692802e+00 1.185508705679001054e+02 -1.149431029408036977e+02 -1.271445238049150106e+01 7.231666239141068786e+01 1.624436953117921689e+02 6.670083506419577191e+01 -6.391767219706017755e+01 3.846303461004603719e+01 -2.658775919176517988e+01 -6.180474970803931001e+01 1.464815008462512083e+02 -6.587211685728952659e+01 -4.870738251258821094e+01 -1.304716223953746805e+02 5.515410278308656267e+00 -4.723995410750443114e+01 3.620257119586285199e+01 -8.302355704677016490e+01 -4.681058277468676465e+01 -9.488163708013749442e+01 -1.454675580526159138e+02 1.812702461481396199e+01 4.253317304810127553e+01 -1.152205002106735350e+02 1.201355731346645506e+01 -7.412307297648754911e+01 4.597098537810052932e+01 1.560172210529275105e+02 -1.350205250450989922e+02 -4.048835745903230787e+01 6.784879856422222133e+00 2.762627397479009428e+00 3.967938022288981159e+01 7.858248374419540028e+01 6.679701826676209819e-01 -8.305613294157010884e+00 -6.548624728269835771e+01 7.319830026192516925e+01 -3.056560780924244369e+01 2.463482673902115394e+01 9.735608064963636821e+01 8.249461626498468547e+01 -4.004245145236715331e+01 5.399532941667644792e+01 1.379452735335808882e+02 1.087626605787407357e+02 -3.707803192246208468e+00 1.629642060597188049e+02 -1.043789901274251832e+02 3.865282239428311062e+00 -3.924566054201624610e+01 1.935041271880356533e+02 -1.986044717597238218e+01 2.734672288192236067e+00 -7.185126374337612276e+01 -6.707288878831350942e+00 -5.968205334132864692e+01 6.345052565525871557e+01 -8.849846675994520240e+01 6.429271979772133250e+01 -4.472781051874809322e+01 -4.653017326995674807e+01 -8.578893883275611643e+01 4.961637272233652141e+01 -5.112758984754325553e+01 -1.397266568072394364e+02 -7.432339148224586722e+01 -9.786882450032364034e+01 -1.471181586928027514e+02 1.271694872091259327e+02 -2.562959586947796709e+01 3.000172247921911151e+01 8.390224491403620277e+01 -9.731362190575690363e+01 5.326074190871314329e+01 -4.052511001743784647e+01 -6.502685359822056910e+01 -8.439768369066159437e+01 1.900699585173959179e+02 -5.308367940730998669e+01 -4.637067046570105333e+01 -4.408518614182730033e+01 7.521751101286646701e+01 -3.877678443755129223e+01 1.290589292652555855e+02 -4.678060194449296461e+01 5.163900052801679408e+01 4.252405664045973310e+00 -7.580869942784514137e+01 6.431832415859756225e+01 2.595966669558289937e+02 -8.620345865772290495e+01 4.439669205171000499e+01 -7.142724293580349126e+01 4.235200014290994375e+01 1.228103637448570709e+02 -4.818810992764971957e+01 1.371343755982622703e+01 -2.524838775984286698e+01 -9.546403896653774268e+01 -1.630790524088552829e+01 4.067976072146067601e+00 -7.297592034283846729e+00 -1.396991805845100210e+01 1.106111754749911000e+02 1.221336795561138615e+02 1.746363287028536320e+02 -2.850700880657328753e+02 3.576157022766806648e+01 -1.479972141495886717e+01 -5.837108614282626462e+01 1.689332183060395778e+02 7.125421135290612540e+01 -2.493536115181707924e+00 -1.085735475999787951e+02 -1.016111968359219375e+01 9.377762185953120877e+01 -1.258393858222646031e+02 -1.579448633908248496e+02 1.006254749805321858e+01 3.972335920928136233e+01 -5.721396090426689085e+01 3.940022087322740418e+01 -1.003327810710482737e+02 -1.417679150792464497e+02 1.973457658788730740e+01 4.552422336831111949e+01 4.544523463512102346e+00 -7.815409234784851833e+01 -8.771541515107237785e+01 -7.895884576751507211e+01 -8.209215104729503309e+01 1.191061208855969333e+01 5.325981409532742816e+01 1.092900306842134057e+02 7.447270491116923097e+01 8.399557974814761963e+01 1.008947938115985181e+02 -7.015687264362586006e+01 -7.741232573052984378e+01 6.619399519799445386e+01 6.444359313718327087e+01 5.560780572556995338e+01 -8.797990951298967133e+00 -8.553250292778390929e+01 5.073631287725473271e+01 -1.683795047726990788e+02 6.316466919647007217e+01 -4.180516189301526708e+01 -9.063159055838917766e+01 6.978772723837089131e+01 -1.617605833880056210e+01 -7.249087446988997385e+01 -5.400632021987439657e+01 -8.658063571518487933e+00 2.284896414310522914e+02 7.252474054491435140e+01 5.165876362649856191e+01 -9.778973163385916223e+01 1.397116855985580628e+02 1.035931795644971620e+00 -8.513953515126330274e+01 1.469337175098933699e+02 -1.453196291475166788e+02 1.488396500327597494e+01 -3.063667567872710862e+01 -2.096150246711167711e+02 -1.270877713714427557e+02 -8.314672515872321412e+01 -2.811355925005592127e+01 -1.136230873759077298e+02 5.493334996420598770e+01 6.199209344542817490e+01 -2.635219701707089968e+01 -9.519866448859364993e+01 1.078315611713873068e+02 1.126268105928710384e+02 4.405773048329872665e+01 1.673651131271308401e+01 2.493967179581546532e+02 4.161992645310083105e+01 -1.141002791986245484e+02 -4.304844903254607402e+01 -1.610565046056630933e+02 3.041846881204800468e+01 1.462446259333829630e+02 -1.414345557982337311e+02 1.257374365956367228e+02 -8.683181533874460456e+01 -1.810916506173330731e+01 -8.249415762610650127e-01 5.050963580923108509e+01 -1.102237422741890605e+01 -2.182905789769095861e+01 -1.788357365628516860e+01 -1.211526136409641907e+02 4.428583698067757979e+01 -2.895299585367667916e+01 -1.228831316886571301e+01 -1.025133594287772709e+01 2.158900881485327545e+02 1.665444333049325962e+02 2.222666268993669689e+02 1.259319920251517431e+02 -8.272441584435243556e+01 7.177460556065803132e+01 2.023919491990591624e+01 4.534557933751218428e+01 -3.784720987811493131e+01 2.440537730125236635e+02 -2.230614977399557830e+01 -1.306834954497771548e+02 -1.426332726879371826e+01 -4.383010846180607700e+01 -7.392919192496472647e+01 4.123917026364485139e+01 -1.119268686684186420e+01 1.738712051904495581e+02 8.818761941220748213e+01 3.905968323286866450e+01 9.361283418424174840e+01 9.056410334562849584e+01 -2.196925951538955957e+01 1.334751087019491820e+02 2.540580972827377337e+01 8.570440986194913080e+01 4.562766512454303580e+01 6.609456488251701067e+00 -1.106529285378060763e+02 -1.108253455654475488e+02 -8.612291875174230427e+01 -1.487229448362944595e+01 8.291840620247499771e+01 -2.925213192440081045e+01 9.455376870738983541e+01 4.192695487258696829e+01 -6.954328862773610354e+01 -2.861122481914798499e+01 -5.601253317153440037e+01 1.680783186518332784e+01 -4.423198314599751768e+01 -1.071449712234059177e+02 1.161702266792511438e+02 1.160572909192431581e+02 -7.555595547389083322e+01 5.111773825609095212e+00 -4.336742629941142013e+01 -3.109093000394066308e+01 -1.084491767148007391e+01 -2.990100194190980076e+01 4.259829272866780059e+01 -1.344820127320671190e+02 -5.057091081190392856e+01 -1.451606902322441215e+02 1.664541419819213957e+02 -1.924333046601518404e+01 5.626422211007285057e+01 1.135686851659633412e+01 1.379651365569210668e+02 4.257840407471778832e+01 3.407028926352894871e+01 1.475091171811283175e+02 -4.705173040986986166e+01 -9.329129086680589467e+01 2.604532844555433257e+01 -1.508970374527921763e+02 -5.100967649412400817e+01 9.774456049709392857e+01 -1.216486610199908682e+02 -3.470011142863670983e+01 8.712392008284771805e+01 -9.008931696989874638e+01 -8.532959182031211753e+01 -7.883480745094853148e+01 -6.081370091835674430e+01 2.377268681250142208e+02 1.891087515507539081e+02 9.820179320699773484e+01 -9.748137386740700094e+01 7.135596809329136647e+01 -6.321845972201798247e+01 -3.011788515232931118e+01 1.586154028571930574e+01 -3.084459381090412577e+01 -8.934067349831137506e+01 -2.750124087176714305e+00 1.401960097187190435e+01 1.037341862832869879e+02 -1.224611360712320760e+02 4.006946177712372759e+01 6.077087757228531473e+01 3.283540932598781836e+01 -8.631948035100042205e+01 -1.414962303140790993e+02 1.838648767911058712e+02 -1.693596804706479375e+01 2.397430671986768047e+01 1.491064871297579657e+02 2.536661952378462814e+01 2.637232343902243414e+01 -4.240342586443271244e+01 8.431917960281101898e+01 -1.296668768582228779e+02 -2.927750582950976366e+01 -5.840562943102075799e+00 -5.074504334760041502e+01 6.093451447137602450e+00 2.015723764553882802e+01 -3.402152804067596747e+01 1.299001625968822182e+01 2.031456581876267364e+02 -2.605736830131419168e+01 -2.665184485343039356e+01 -9.660321252271555181e+01 -1.537415559103505025e+00 -7.669467365423294325e+01 6.028264526787054933e+00 1.065050659567942972e+02 -4.940631806749236432e+01 5.730784860553754356e+00 -5.156346460724250846e+01 3.129191408151581477e+00 8.279439444720385666e+01 -1.100145215056573420e+02 -9.199727332647402989e+01 -9.744703363939038354e+01 6.771191121793106049e+01 8.218876453490651102e+01 -8.751257825902901288e+01 5.952237850590320534e+01 2.455717483304945858e+01 3.673415181759531833e+01 -1.683228581726155326e+01 8.676184951964420122e+01 7.563093481648047600e+01 -7.331293970315414299e+01 1.114410247258863862e+01 7.674911459036518124e+01 6.912627231010658591e+01 -1.892712828258727242e+01 2.367402053373859161e+01 -1.258753006713897094e+02 4.610095297212131982e+01 -3.113029650014017946e+01 -3.106115339633676697e+01 1.643868677071379807e+02 4.498715741780175392e+01 1.140720350921986181e+02 1.812972417206039779e+02 -1.306594957859559543e+02 1.415517195683827083e+02 -6.028733076103371502e+01 -1.282940037861155815e+02 7.812347638944135042e+01 -1.272050820887898652e+02 -2.726591132587325816e+01 5.350885799542559340e+01 7.600820054745097032e+00 -1.596945492862555511e+02 8.002987356384484485e+01 2.397820935982123913e+01 6.556375799215420841e+01 3.449257836998624072e+01 8.975179179011373520e+00 -6.369755887201805677e+01 1.097885862851435093e+02 5.172994796165407649e+01 -5.894727373423901184e+01 -9.609761417178907550e+01 3.689148196670839752e+01 2.447714032911018478e+01 7.823384707444283492e+01 1.745116729526540098e+02 -2.334181623583461729e+01 -1.045717731873815666e+02 -8.031210919412480109e+01 -4.869956979314128631e+01 -4.201633468195680621e+01 -1.392309221870638112e+02 -2.140461845273545904e+01 1.229651879250750284e+02 7.071370920656933379e+01 -1.161280956048217803e+02 -1.423750665129843753e+02 -6.458409794053916642e+01 -7.236610192277831288e+01 1.394052214519029178e+02 -1.617923264885742753e+02 8.219502592250059081e+01 -4.370786357535266120e+00 -4.086156272310691406e+01 1.259103475963621044e+01 8.645766645930744687e+01 4.698044135254986031e+01 1.311513014868519633e+02 -1.510309310154999309e+02 -7.683560229460006497e+01 2.411852775811595606e+01 3.977818929664387326e+01 1.955520785711262022e+02 1.380551138194686303e+02 6.223063484369374976e+01 6.841942052816567355e+01 -3.218267773861190051e+01 1.440056758416365028e+02 -1.702592157718092665e+02 -6.021639917212725379e+01 -5.093039101153786419e+01 -4.914265563632212519e+01 -9.794332720996179376e+01 -1.424355731494675759e+01 -6.510668383371735501e+01 6.749710539779873386e+01 -8.655029523582214779e+00 -5.503787546433839140e+01 -5.896254496144779012e+01 1.709536679427212675e+02 5.606653291814790663e+01 -1.306765202999715036e+01 1.982016689881830303e+02 -1.028335928323628252e+02 -3.350415591548695460e+01 6.354057880158583771e+01 -1.380178238388999890e-01 1.424608341907405951e+01 -1.187707805579041889e+02 1.671608805327324205e+02 -4.639048881973361915e+01 -2.547148178946052610e+01 -1.040371525986851395e+02 1.193541543340929820e+02 9.084294632035599193e+01 -7.347701122544248165e+01 -3.573657507928466259e+01 3.696857620775816144e+01 -1.434970359664506816e+02 -2.282278337579003169e-01 -7.081512872632227129e+01 7.263050263009789731e+00 -1.024254350457552505e+02 -1.502476831704530866e+02 -6.699931502396023575e+01 1.404418126272648237e+02 5.354114543413889749e+01 -8.495744141392960103e+01 8.444254952508092060e+01 3.237642195401097212e+01 8.374069245442757392e+01 -3.990044410560496857e+01 -7.960152802710904041e+01 1.620003659142032006e+02 3.939586821375180392e+01 2.739827514424233712e+01 -6.907999485590026723e+01 -4.006295165876919384e+01 8.968986105129614472e+00 -6.804747602513115723e+00 -1.636156729556931282e+02 -3.278507679358524030e+01 6.094035509967939390e+01 1.055569999304432116e+02 1.473939656728834677e+02 -1.258880698975899115e+01 8.479302802948080853e+01 1.492481575531220983e+02 5.995975058149496562e+01 1.395832737483312940e+02 1.519569187353019757e+01 1.241619257636677958e+02 -7.935820279695293777e+01 5.038272002680422190e+01 2.765804284166507543e+01 7.165210957961778604e+01 -1.003362172312998979e+02 1.871010010686684666e+02 -1.214414104776200247e+02 8.341185538429878932e+01 -1.012925919437911233e+02 4.359629450661405770e+01 1.303822809927996396e+01 8.553259845821598617e+01 -6.943519834354400189e+01 -7.120185930216619852e+01 -1.047137138939056378e+01 8.398142417273983540e+01 -2.789593235343361854e+01 -1.534417879621646108e+01 -1.849345612292419361e+01 4.458475186466749562e+00 9.238788961331658811e+01 -5.884504253274961627e+01 -2.535181832719195505e+00 -1.822900119516042139e+02 1.147202072497273235e+02 -1.172972531020009370e+02 -6.936121720458856998e+01 -2.207175924394786293e+01 -1.013974957665445800e+02 -4.989657759638798495e+01 -5.503713605965214839e+01 -1.851517380538142987e+01 1.278838329392386157e+02 5.076089529009642121e+01 9.426067294645943662e+01 -1.277823495769688691e+02 -1.300875666428411250e+02 -2.692676125270270404e+02 9.598065498441896182e+01 9.781191636098409958e+01 3.977429491864122468e+01 -3.992229963214457200e+01 -3.485284803538078791e+01 -1.724789922982572818e+02 1.371110354791260590e+02 -1.008275782403152476e+02 1.004241616463567510e+02 -1.494226392590273633e+02 -1.345560219249784950e+01 -5.199287303045371544e+01 -1.119852981213433196e+02 -4.329673200959248902e+01 -1.182350444085598795e+01 -8.703814770958364022e+01 -9.711491748550167813e+01 -1.161329087960203310e+01 6.682414068672412100e+01 -1.169868961638650404e+02 -1.467604921915696714e+01 -6.924403002726074874e+01 -1.233912493721099253e+02 6.130529993243913900e+00 8.923551130848612445e+01 1.554962644887564807e+02 -1.788387507431134793e+01 -4.324185631573984523e+01 -1.166755730763554908e+02 -1.537807775892031827e+02 9.756387963083319903e+01 -6.833806062827268590e+01 7.419798235147636944e+01 8.826331984380987095e+00 2.742233060322244498e+01 6.939422121013265610e+01 -7.970848693661700679e+01 7.774776623731784753e+01 1.083911530709361557e+02 1.481566654986959293e+02 -1.095048587055405989e+02 9.777066760148147750e+01 -4.495873397487501677e+01 -8.539649919447944626e+01 2.018574839351036303e+02 4.624228345617282088e+01 7.850504676952009220e+01 1.988754512993468992e+01 -5.958985572319147650e+01 -3.285322683636246666e+01 -1.978868733947981298e+02 9.936643029413107797e+01 7.661626472249118081e+01 -7.119019878803052848e+01 -6.872730416469708814e+01 1.365417580850761681e+02 9.505110925215564066e+01 4.808564365453660372e+01 7.152092159241479408e+01 -7.340432479482747574e+00 9.704259586991369702e+01 -9.746174018969006170e+01 1.752110622545756371e+02 -3.713405228026680049e+01 -1.147643443621346222e+02 -3.550222592794486332e+01 6.746695903534688910e+01 1.385497371837327876e+02 1.202593912080519445e+01 1.634767682925642305e+02 4.905988734848573074e+01 3.165240694619361506e+01 -1.046655350866803360e+02 4.208614707737320515e+01 -1.175029653933153497e+02 4.489847742532300856e+01 3.622751054871206833e+01 -1.160661712507525465e+02 -7.997966961895669158e+01 3.750853273001546739e+01 8.204739928028619289e+00 -2.180258040737239256e+01 3.941906876870390164e+01 -2.013226968021985286e+01 -5.932932590198271328e+01 -2.474754177590968496e+01 -2.105181833210111364e+01 -3.743874393188923477e+01 1.763270113534339245e+01 -7.576810144493460086e+01 1.118462195578693041e+02 -6.980481647865696004e+01 -3.888738376118901829e+00 6.179629796598641178e+01 3.623026387151738081e+00 1.503219359027831459e+01 1.503101226522324119e+01 -1.101111018649177282e+02 -4.134038836660954175e+00 6.115857055141701437e+01 -2.176117924564012469e+02 -7.985738074083126037e+01 -1.059386273005397072e+02 4.119376697719767577e+01 9.045985377921805082e+01 -8.630343087183763373e+01 -1.578508789964145649e+02 -1.741669995127115556e+02 1.874632694959161583e+01 -1.362235600081047551e+02 -5.956476994132906100e+00 1.387144539860406667e+02 -6.613435089759335028e+00 3.485351518609376598e+01 -9.277352442470670724e+01 7.492743679928861411e+01 -1.111534640462519832e+02 -1.449228472916679600e+01 -2.835036530511273156e+01 5.398408652396548035e+01 -8.243252039446410606e+00 9.895248521414038123e+01 -1.143345721445004273e+02 -4.688622213510323888e+01 8.119615255278846178e+01 6.189508405174711214e+01 -7.696689266008648644e+01 -5.090983150761043419e+01 -4.620132412851660320e+01 -2.705667491628762491e+02 1.808833560134013112e+02 7.103876911530218763e+01 -2.198832093421770750e+01 -2.771899886283130243e+01 3.877750630453488156e+01 -7.845698628497619609e+01 9.282890890374902426e+01 5.646809708250597026e+01 7.633892481366311245e+01 -7.842651508392442850e+01 -2.465104807070968462e+01 3.102935669411640163e+01 1.620189267629116259e+01 -3.997339824742273606e+01 1.472940811412809410e+02 -1.609385324329966238e+01 3.302830986273039571e+01 -2.142582219622682658e+02 -7.885476518208889729e+01 -6.812281898730003604e+01 2.146272644154232978e+01 1.017024535409508701e+02 -2.159755812054289379e+02 -1.742506169492060906e+02 2.064168110208970859e+02 -9.836579157230683990e+00 8.943258000136657415e+01 5.828236874938081513e+01 -5.151952201453428870e+01 -1.220102141936240656e+02 -8.863082002069401710e+01 -4.678808026369087969e+01 -3.481994343429143868e+01 -3.647958738317596783e+01 1.499265601111517299e+01 3.471195088592176603e+01 1.554619615187610293e+02 1.148429887933295248e+02 6.562494764279033888e+00 -4.126895163178819104e+00 -1.478106851374818689e+02 1.114473374173264659e+02 1.483477394102093569e+02 -9.640559388370709826e+01 6.865522847879682899e+01 1.520891922215129588e+00 5.120990209571580465e+01 1.167275297832327112e+02 6.607803924873486778e+01 -1.248871017669805923e+02 1.498644761063557596e+01 -2.737742669866221590e+01 1.038696948177551072e+01 -2.146454846032277075e+01 4.221840150548442239e+01 -2.429488788818223668e+02 1.687864979167377442e+02 6.727109167512018040e+00 1.485609895952837860e+02 -9.773149705929437658e+00 9.893554137758923162e+01 6.678069232256621035e+01 -3.910456187643860915e+01 2.797286909023720014e+01 -6.797100055516564510e+01 -8.306423802680279778e+01 -6.719541709832168408e+01 -2.992379091036611527e+01 4.213973898515666150e+01 1.028032919510521737e+02 2.654584151130099201e+01 5.810255555925218118e+01 -9.790014330947815324e+01 -1.280649376394127330e+02 -1.259209564410354076e+01 4.329707304219253672e+01 -4.238371034670866067e+01 8.841756160540465714e+01 5.192292306016720715e+01 -2.581289242734019851e+01 2.797010144399311571e+01 5.739291428611601731e+01 -6.735207865060367283e+01 -1.249675555691431583e+02 1.327470885928828466e+02 7.299396670417950261e+00 4.686743559974118511e+01 -1.396407833859721563e+02 -4.995555892225286243e+01 -3.836991009264652530e-01 -6.163587429738060308e+01 3.976139659146096683e+00 5.270346329905553517e+01 1.745323999304154938e+02 3.664068157447089646e+01 -1.025439940457784971e+01 6.770708477049160479e+01 -4.256717674075819957e+01 -1.020729151139243527e+02 -1.294306748467653563e+02 8.761779523806046299e+00 2.353003813715087844e+01 2.237109750400462715e+01 -5.332383259334113035e+01 1.132488043058613556e+02 -7.577068758909271651e+01 1.203303717860636937e+02 8.185987816512655968e+01 -6.100424766417944511e+01 -7.958142160368053908e+01 7.903564006569965272e+01 1.911401462146313790e+01 -4.932757687055209317e+01 -5.052601193575971195e+01 1.284553895363865763e+02 5.386736050918394625e+01 7.509576550405425621e+01 2.456066312510490235e+01 -3.946955090293620572e+01 1.008773253672988943e+02 -5.128428668375725152e+01 5.616415276643781374e-01 7.190902967498158205e+01 9.363936790291764112e+01 2.403079890488285741e+02 -1.648004768224586769e+02 1.513251926062893347e+02 -6.349321694541043115e+01 -1.433819568971741099e+01 -2.369563412678784076e+01 -1.950533182691161471e+01 -5.182163274862673319e+01 8.759488665675854691e+01 1.732380624031128207e+02 -1.118265956987217180e+02 2.913659023460124686e+01 -1.195623552112162145e+02 6.615505626375178849e+01 -4.189117285410722502e+01 -7.644571538329027760e+01 -5.087649655412523941e+01 3.889313234469241820e+01 1.825756464225933584e+01 -7.715212605688579117e+01 -1.331569903109986512e+02 1.960108755133799008e+01 1.488930033258644983e+02 1.350168195041055164e+01 1.724701567635352148e+02 7.040708137576473291e+00 1.273171351566928564e+02 -3.270401061002788623e+01 8.589518790337962173e+01 -6.759266217657271625e+01 -1.068595818658675540e+02 4.680138037046009458e+01 -5.490517616328391171e+01 -7.440050198922250502e+01 6.898144483382253611e+01 6.159091283852156984e+00 -8.932161138581797388e+01 -1.427857735655616409e+02 1.403016551000051209e+02 -8.458446921835395926e+01 -2.273132937828078237e+00 1.139875435634529737e+02 5.504054632708187000e+01 -9.326542547904287517e+01 1.014385372016741016e+01 2.679000330468770699e+02 5.061130562206732009e+01 -1.498476435584667001e+02 -4.537579649155574657e+01 -5.842512722374607392e+01 9.128563858914219509e+00 1.022952281540117667e+02 -9.846790519348793680e+01 2.056404057864203594e+01 1.241262272603094914e+02 1.785997058925507019e+01 -2.010932348246466290e+02 4.592322872081453511e+01 7.186635225179587394e+01 -1.295784333559351609e+01 3.120151917587972790e+01 1.937198779179058750e-01 2.152709484020166641e+01 2.640933842292697520e+01 1.103341928651504986e+02 9.340659257077089705e+01 1.494901671578995561e+01 1.419193778086568045e+02 -6.097430681594742907e+01 2.349345767296187262e+02 6.196706005168595510e+01 1.350430673526383032e+02 -2.091447394727906328e+01 8.582987843370246139e+01 -4.654153709991525290e+01 -1.394641059246840484e+02 2.490202173999422186e+01 9.043294703795801581e+01 -8.339820607542218056e+01 -9.980755597320330708e+01 -6.340617197162295327e+01 3.491472933032591897e+01 -1.087732014080370817e+02 7.115686064478070705e+01 2.669262021345533142e+01 -9.301632922931733560e+01 1.809498714657634082e+02 -1.120507921887543112e+01 -9.700909309137203707e+01 -1.281054183076034292e+01 -1.947589607645742404e+01 -1.336126813924821306e+02 -3.812248131655506711e+01 5.863098404832028621e+01 1.256230154507724563e+02 2.770099217739594621e+01 2.546577448292991619e+01 4.268145667286072609e+01 -3.400447867309554084e+01 -1.388033977529188689e+02 1.518085749027512854e+01 2.946792356172117522e+01 1.268960602355324880e+02 -9.385110766595765597e+00 -7.253866977278444494e+01 6.975804832288768864e+01 9.122222540262465706e-01 3.022988692401194655e+01 1.326401006938530998e+02 -1.691025735558665417e+02 -8.851639683362652988e+01 1.188952698153599670e+02 -1.998019498934921501e+02 -1.703241797074941246e+02 8.433930134483732388e+01 1.426237168290624879e+02 5.876966252838499827e+01 -4.168629694686127429e+00 1.441868419285596019e+02 -2.033608561181241043e+02 9.924256742349031413e+01 3.924469764368337366e+01 1.176863397668521998e+02 -1.746634306971930641e+02 9.856875792227023680e+01 -2.610118089408248210e+01 -1.238104836017351005e+02 -4.925724578633041695e+00 -8.555219460471107595e+01 -1.495432931381136754e+01 -4.074822242611772616e+00 -1.140995157801411466e+02 -1.142126455333374082e+02 -5.793613955734544163e+01 -1.193680439000168008e+02 1.861213633059972210e+02 -1.492907824265744239e+02 -4.648699585255478439e+01 1.598052917207391204e+02 3.143163827112277176e+01 -2.741479337263884872e+02 -1.177857660812444180e+02 3.286156167749019374e+01 5.064100063399938989e+01 7.862856989258653506e+00 -1.431453182359262257e+02 3.304865233615545606e+01 6.981917980041415284e+00 -6.884340300886162822e+01 1.877900282455741774e+02 1.875889118795345780e+02 4.041032896775995198e+00 -1.931705377870553946e+02 1.166648043630904539e+02 2.846091130788603252e+01 3.576295065910024995e+00 7.089259405156140303e+01 -1.921868728112281701e+02 -1.278092064669970824e+02 1.305785202413176762e+02 1.015672278316757939e+02 4.897137240542175363e+01 1.325637701511446380e+02 -1.650998052693856266e+02 -1.897959250094568873e+01 -1.207434998397522037e+02 4.050049794471764386e+01 -9.621185868798535523e+01 8.066313124157788650e+01 -3.145155435774757180e+01 1.147334714123378951e+01 1.643500000556608995e+02 2.648363725563816828e+01 -2.441098757160407615e+02 -1.170856767991198097e+02 -7.717693685050058150e+01 1.464371834679919004e+02 1.161854539265366704e+01 -4.996766515937562758e+01 2.803463128935709037e+01 5.784370604518004910e+01 -3.659832110247801040e+01 9.956944669709407947e+01 -9.331595800096759774e+01 4.557972245859504312e+01 1.036723288947792270e+02 -3.295791838309781951e+01 -9.088197101704906800e+01 -1.051204880775760984e+02 1.109216314875037597e+02 -4.603552297052733167e+01 1.820373372090518274e+02 5.298218708098251994e+01 1.027417027153607592e+02 1.709599073660477586e+02 7.919356919121463001e+00 -1.151617192806016305e+02 -1.534547577877864057e+02 -1.057135784004842947e+02 3.939994587476132892e+01
-1.226982873372532090e+01 -4.409094251054621161e+00 9.364598944099030575e+01 -2.072167298120893406e+02 1.406009661502691017e+02 5.740468639005002416e+01 1.376432529737673462e+02 -1.168586909851713642e+02 -2.487074924666643039e+00 -2.175076565523175276e+01 -1.985661544723911902e+02 2.956072322997177437e+01 -1.656327541151786775e+01 1.106561151557784370e+02 -1.132142306708307871e+02 5.583018058884319146e+01 1.132948391808462958e+02 -4.158185348214592381e+01 -4.479136312795287012e+01 -2.434888988649413122e+01 5.586400415221059035e+01 5.700213718489978021e+01 2.935802677738907462e+01 -2.102763350636262771e+02 -4.658188237371095397e+01 8.285891840472709191e+01 8.976013927980556417e+00 -9.412461617592979835e+00 -6.015202599797942185e+01 -1.405587134044092679e+01 6.632910227011252857e+01 -1.315003007200479033e+02 -5.607552850436532310e+01 8.091114984570110025e+00 1.877987910331659691e+02 1.918043437568882723e+02 -2.913084782052534649e+01 5.053878325862964260e+01 -2.210453719909825088e-01 -1.262685146457446734e+02 8.677391959935422960e+01 9.693946309377507475e+01 9.811927816694476689e+01 1.054255314674620614e+01 5.594118811699915739e+01 4.350497695804056519e+01 3.514733904211240656e+01 2.658512908281287324e+01 9.971229697290267779e+01 8.110117879066011426e+01 5.927293429174714845e+01 1.474093082106784607e+02 2.242051761115870079e+02 1.768796337446233338e+02 -5.348783719009567506e+01 4.455274729102195153e+01 -5.808427511170427238e+01 5.096020693326491369e+01 -1.738458456174079743e+02 5.108715793360456559e+01 -1.851130877544849795e+02 -1.525758032735990355e+02 1.172212361655990343e+01 -8.402211352403581301e+00 1.532704540395789650e+02 -1.881180651498469274e+02 6.805720260801328436e+01 2.078968022154992354e+02 -6.737518489745945693e+00 -1.762502537715726589e+02 3.208369539845288898e+01 1.782911662364517440e+02 -5.527850407972703550e+01 -2.411643446454864090e+02 -9.276835271775320280e+01 8.118327348072737593e+00 -2.081192913998781364e+02 2.908596772859761614e+01 -1.623370227905124068e+02 -1.678416826584329158e+02 -5.179484332731900764e+01 1.378766059725161597e+02 6.279563950787154170e+01 9.620854469903308726e+00 -8.029551354357734283e+01 -3.854954917716261065e+01 5.766916680971424825e+01 -2.102030474759006893e+02 4.896997526800906542e+01 -6.778509068509490021e+01 -7.078908402978851200e+01 -1.600883835936710113e+02 5.883918713493244468e+01 8.389568679213400060e+01 -1.469702219129353011e+02 1.565191666634305818e+02 -3.609400591643546363e+01 -1.532957576312155190e+01 7.945823324948106858e+01 1.416531173009077236e+02 1.974997459200641003e+01 1.372287208026426129e+02 -1.680350331023898391e+01 -8.217933210484534357e+01 -1.775294534857345141e+01 9.155502211002850288e+01 4.191021986435965374e+01 9.116988075773966216e+01 8.793950700885812921e+01 -7.747735089041023571e+01 -1.583547748199884211e+02 1.146708085749374106e+02 5.054013075022563584e+01 1.519324995572200088e+01 2.848619051520390855e+01 -6.330946099806529048e+01 8.949699510253499568e+01 8.379035757823660902e+01 -1.284327015650152681e+01 -6.644189844625890373e+01 2.856464944122565086e+01 5.869872870358218364e+00 -5.727813258683935516e+01 1.581469039378161483e+02 -3.046066893255246910e+01 1.133820091722209327e+02 -6.534188515763230498e+01 3.580134251886358498e+01 -3.359840032862594228e+01 8.348294085687327026e+01 2.187839534800675878e+01 1.078195980892038790e+02 -1.082685220352427820e+02 6.936031077427364266e+01 1.151622070275270318e+02 -4.167268811090339398e+01 7.191025549493035740e+00 -1.201304817690761695e+01 1.090488344932821008e+02 3.494255838805172321e+00 1.573113772495362355e+02 -1.319917525350205665e+02 1.088474273261539196e+02 -8.514622810266894248e+01 8.948554603912320715e+01 -1.279711548887139827e+02 2.754193332466757127e+01 2.313049550335731652e+01 1.631069739394335638e+00 3.391622658080505204e+01 4.304337974214755747e+01 -1.152288990124877621e+01 1.025472127130626276e+01 1.009849026504731597e+02 1.188523490860365683e+02 -8.105097346374549261e+01 -5.057298723543840424e+01 4.418705786431177529e+01 1.395590356279589717e+00 -1.280552517231826073e+02 -5.158320437452798757e+01 -3.305533047159588733e+01 4.568040676315446547e+01 -6.121733187467324910e+01 2.140229604164365895e+01 1.499837825775515228e+02 -7.428552189260388161e+01 7.565795056011145903e+01 7.861320726301090644e+01 1.059508036661069497e+01 1.155336564502111401e+02 5.885437190016559583e+01 1.573058137745000238e+02 -3.246779598496762276e+01 1.052699823669839674e+02 5.205927115783332937e+01 -1.503203300006620324e+01 1.912806599835030568e+02 -1.300429697245993736e+02 4.584887041537934493e+01 -1.758924730008664596e+02 -7.892472783667999181e+01 3.852187717576525472e+01 -6.776332033820133915e+01 -1.461672650096153063e+02 1.870945911352447979e+02 -8.051656179171101257e+01 -4.459222283897157979e+01 -4.344178072864227858e+01 1.143196494442743898e+02 1.828784127545200420e+02 6.079545444568709911e+01 1.373409168320054334e+02 2.061454037052874071e+02 -1.474938673225573371e+00 1.529451467472553929e+02 6.657248786268398533e+01 1.788341854631323997e+02 -1.181994090699801347e+02 -1.108350239904406642e+01 5.990682327314059918e+00 1.783878406220516979e+02 -8.529641245829738239e+01 -5.690408038245097089e+01 -4.970352136349174543e+01 -1.259569862161972083e+02 4.397174952040490581e+00 -9.479010492105157937e+01 1.448863115891307132e+02 2.209236091921451361e+01 1.124210624474730835e+01 6.791415546826854666e+01 -4.589655678558242080e+00 1.099563229150304977e+02 -1.492770719973614177e+02 4.269590943496409352e+01 -1.603762662053365489e+02 1.103033338709795856e+02 9.034599298948761259e+01 -6.317272865854322106e+01 4.399955580342066952e+01 2.237096976998141713e+02 -2.864725004519639384e+01 3.911535415793477455e+01 -3.070718117378878276e+01 5.443955173382846624e+01 6.033905569478600484e+01 -5.917881221055845131e+00 9.567747372615480117e+01 9.523493273208148935e+01 -1.820825200070430867e+02 -1.439164195868630145e+02 -1.125895648749791178e+02 -8.828259210942196233e+00 -1.406217736798009526e+02 1.085246858795572109e+02 1.035844246474743073e+02 5.544559174148867697e+01 1.048950024252970437e+01 1.480517370289178984e+02 7.883897403105891044e+01 6.341321497106520155e+01 -9.535516760221044308e+01 1.432051771718882094e+02 -3.412168450188304281e+00 1.027145122080932964e+02 8.289481084581991510e+00 3.449413958146291037e+01 -7.102588249312680091e+01 -8.515941403861897641e+01 6.720488950467718325e+01 -3.658651151510388999e+00 1.371552319582287680e+02 -1.176591004649108818e+01 -2.655600006778220834e+00 4.303189139354981307e+01 2.121217156345750610e+01 1.326821038491541742e+02 1.384005728654480549e+01 3.364979140735126606e+01 -1.450622959499159776e+02 6.169713001582899636e+01 1.253043585826497264e+02 -1.641870093030207300e+01 -2.137160502559469535e+02 7.909070312210739928e+01 1.275424832023639823e+02 1.912942419635536240e+01 1.769113475959387642e+02 -4.088746600290301458e+00 4.006107479812208538e+01 -4.080957746733204061e+01 -1.294569408744235659e+02 5.235750432722625902e+01 -4.434508671051101203e+01 -7.553863803167664059e+01 3.848285905878133661e+01 -1.723500272424738284e+02 6.676407010789749563e+01 1.534165426680082476e+02 -9.436669745276520871e+01 1.613271224670905326e+02 -9.091143301639907293e+01 -5.536454265126365293e+00 -9.851148245590705343e+00 7.144313008594370729e+01 -4.346830501813418834e+01 -1.003315098995870187e+02 -8.253462832318197684e+01 1.357328433961137932e+02 5.502370069897654759e+01 -1.227481040552585512e+02 4.089741470086739383e+00 4.035493314043293367e+01 7.676697358699715323e+01 -3.749589832098363473e+01 5.570225538369271590e+01 -6.412199854082535921e+01 -1.508340505019693296e+02 -3.217253069075742644e+01 1.309788434774001473e+02 -1.054248514354552668e+02 -5.903254784195340221e+00 -1.512444399274152715e+02 -4.561521578359595708e+00 -1.355157689751665941e+02 3.064116593640332908e+01 5.600009421455850855e+01 -4.672672441081222416e+01 -7.645127965688303107e+01 5.248200056667735147e+00 6.907834907563817239e+01 -6.290304650490233485e+01 1.249579690507514016e+02 9.800977530219309131e+01 -1.184232601041238837e+02 -9.784845569784665997e+01 1.252866278714231925e+02 6.609576624422430768e+01 1.392931607929080258e+02 9.255206401034533314e+01 7.517263464613236579e+01 -5.587629237074202138e+01 -7.571042707567143282e+01 -7.135620542365414565e+01 1.893955347446229496e+02 2.840203180119798887e+01 -2.308942750776369479e+01 -6.335805071966659341e+01 -4.613582436356913519e+01 -1.214704557665691453e+02 -1.520108264987509550e+01 -1.618383304413848691e+02 1.152879027529532294e+02 4.236104417706433622e+01 -1.062130610173785641e+02 -4.465347722087750526e+01 1.103920196518314469e+02 -8.930470002560393539e+01 9.483208605675972080e+01 -1.092628632198037764e+02 -1.087164618041162001e+01 -8.805572328288901929e+01 8.277408724096767401e+01 -3.914713112164277220e+01 9.402815588782852174e+00 2.708428719118701977e+01 -1.167199225485717307e+02 1.151608293333274879e+01 4.462543658235792066e+01 -2.054440668406484605e+01 -6.335574817975155071e+01 1.867925674790504047e+02 7.969556588221682603e+01 4.337534924226118704e+01 -2.893545830271411745e+01 7.387720841385602455e+01 1.544614391321149185e+02 -8.493606762139695832e+01 1.930552228943319903e+02 -1.226583742361321185e+02 -1.694278070834849075e+02 1.397882840174553394e+02 -2.156004702801591009e+02 -8.290876412973658960e-01 -2.256872261432889957e+02 -1.408217388907595762e+02 6.614831959259443295e+01 -1.341091830717232369e+02 5.376166311688169230e+01 1.013754698534191050e+02 -1.476702002457098786e+02 -2.768127707754356592e+01 6.950378041938641616e+01 1.233598831418917285e+02 -1.715263636113425321e+02 8.065440057321183076e+01 -9.028206136732961795e+01 -9.048908339646093424e+00 -1.272819909783901160e+01 -7.328573203604298669e+01 -8.315781285066297812e+01 1.671145863242975906e+02 -2.004150915444997239e+01 1.264306055244567073e+00 1.200411538066313284e+02 -7.999776938429337747e+01 -3.174030644805450763e+01 -9.932515561604667198e+01 -4.500093200564547402e+01 4.714027634050028226e+00 5.471602057500024330e+01 -1.246539253936304732e+02 2.190007001001199001e+02 -4.974783689833311229e+01 1.132377287057847184e+02 -4.511617372121961722e+01 1.106720013728956786e+02 1.287361355151460884e+02 4.427367537183769741e+01 1.128514418811713256e+02 -3.998372760567273332e+01 1.294821013855163869e+02 -1.448434162533097833e+02 -6.052102600275809152e+01 -5.827297100849425249e+01 2.371721163878883587e+01 -1.501937798652610070e+02 6.712707060210874488e+01 -2.855484312007836323e+01 -7.649651312824566673e+01 8.289434153916172932e+01 -1.398899665729105379e+02 -8.447872007273061001e+01 -4.879706057210636772e+01 3.060596933454946367e+01 1.201519962021105101e+02 1.081132835168929773e+02 6.392228556959862829e+01 -1.394677696268401101e+00 1.619883709743782561e+02 1.134365317351949045e+02 -8.752814216165842254e+01 -7.226468849951216100e+01 5.079779262046791644e+01 9.164589213341374219e+00 9.070845913065116406e+01 1.544551179368444593e+02 6.537827073253868093e+01 2.269236461408101846e+01 -9.467223289666080177e+01 1.589822346491547762e+02 -1.052044909415747753e+02 -1.529743222624445025e+02 6.085378549024972727e+01 1.032278569177667435e+02 1.821313940579068813e+01 -1.285026280630758890e+02 2.746394463934548469e+01 3.921408882892473002e+01 -3.854998152082924623e-01 1.211584147721454343e+02 9.062349255824028660e+01 1.583762745591901577e+01 7.246215111061738412e+01 -9.882718416474631340e+01 -5.948121948741228238e+00 9.096961163258669103e+01 2.747031734538293435e+01 -6.011975328056358592e+01 1.831661664598686059e+02 2.136890699634996906e+02 -1.159239910934819591e+02 -2.557226910543635157e+01 -1.941927944649900439e+02 -6.670685732925409184e+01 1.446141453044216973e+02 3.063844768891870185e+00 -6.559568152075890168e+01 1.512567797729723509e+02 -5.768931257013420577e+01 -1.483862555904455860e+02 1.261539895407356227e+02 -6.201335886546380749e+01 3.194632470688576831e+01 7.969469844686067006e+01 1.275386022645050943e+01 -2.200375474488886312e+02 3.912194038364730631e+01 -5.748093795635725201e+00 8.325298895972390767e+01 -2.176572785361861051e+01 9.327720140259005177e+01 1.572946133274424518e+01 -7.810446358545058843e+01 -1.892629428692858440e+01 -1.618179344604114931e+02 1.061321878485523484e+02 2.335843240814390853e+01 -3.840126273466660933e+01 -4.780114096404811619e+01 -5.814027234851656090e+01 3.800142776356814522e+01 1.483630863015126806e+02 1.224858687317159536e+02 3.970225759702115909e+01 -1.826668186504633979e+02 -3.581664208453905474e+01 4.047017593108719780e+01 1.082724688143064640e+02 8.043347751681778846e+01 1.422676912871948218e+01 -1.716799686121858599e+02 1.214811750544553206e+02 -2.065069051130047910e+02 -1.899699608478678385e+02 -1.662605998594527623e+00 -6.807867329061915029e+01 -2.231769835406202063e+01 8.039477098123383314e+01 5.160785125283219799e+01 -1.025941845832029742e+02 -1.398361843879806088e+02 1.344017473593032008e+01 1.141581206979236782e+02 1.903278337882622750e+01 -5.234038031972248461e+01 -4.772666219834051304e+01 -1.072451867400427261e+01 1.489477817262007591e+02 2.062617052572704424e+01 -1.633159666480407850e+02 1.206887220948270425e+02 -6.285768424501698348e+01 -3.918901119484097695e+00 1.447161291151857370e+02 -4.909267400237916945e+01 -1.842987666545198167e+01 -1.032358185249408535e+02 -5.626875061261806366e+00 -2.239399352869437365e+01 1.236939065671848681e+02 1.127904871558559847e+02 6.350829808813512045e+01 6.155065177284726019e+01 -1.757123648294587426e+01 1.269509152328070343e+02 -1.060029790198605895e+02 -3.985651901961393850e+00 -8.556000755377644396e+01 1.475433274281315619e+02 6.851436422102268864e+01 4.851276772802048498e+01 7.719280110953051555e+00 -5.012294325705934739e+01 3.230179336065423001e+01 6.285030675231601194e+00 3.504960140312680661e+00 2.262019319176821242e+01 5.616096992576110125e+01 1.599774394701014728e+02 -3.655851521161604012e+01 -4.880966526798557226e+01 6.276631672565761733e+01 1.086585397764383316e+02 -1.204980137042533528e+01 8.643551674752740155e+01 9.788597423759381400e+01 1.981014581461141688e+02 -8.129349676547020920e+01 -1.152202725276460171e+02 -2.692513060010499615e+01 5.843856821255874934e+01 -9.536813928081532055e+00 1.008993209067260608e+02 3.501298196863937306e+01 -1.527541845602426349e+02 4.231054680224767850e+01 -8.402361606004997441e+01 -1.270598758295099486e+02 1.263263672413461762e+02 -7.145687989313030641e+01 5.562135291016471683e+01 1.043265718803823461e+02 -9.289015982304529473e+01 2.210200527968683559e+01 -6.771050248594399079e+01 3.785130957554851250e+01 -1.076803870489998900e+02 5.785648885164818722e+01 5.134746806692082544e+01 3.572158482542709734e+00 7.880199777118716042e+01 -1.433813145593193497e+02 7.163213180194594543e+01 -2.757663337795181846e+01 -1.573640110936379983e+02 8.807756201106312233e+01 2.290423943791646266e+01 -1.826130983207376914e+02 2.192069038928566727e+02 -5.108496533135991058e-01 9.793613156300018829e+01 -1.123156491744608303e+02 -1.808706918542328026e+02 -8.692236076905911091e+01 2.359653667881478789e+00 1.330315399652180304e+02 3.641849303417551198e+00 -8.903476101317393443e+01 4.683608412528275977e+01 1.276381857657224685e+02 6.048059818939606913e+01 -4.814287931097764073e+01 -5.509957098612549942e+01 7.870108488214945908e+01 2.857042110513912903e+01 -1.822179077966135878e+02 -1.930420662655779651e+01 1.574107796423663217e+02 9.197007160866526476e+01 -5.342913592862745276e+01 -1.041324835195132579e+02 -3.973067503649603083e+01 -4.478417665396335678e+01 -1.065906709280160527e+02 -1.711831403745744851e+01 -4.251916193734527383e+01 -1.058298104268833697e+02 -1.229275852491774685e+02 -2.514509895564179942e+01 -1.170793189597076207e+02 -1.247234683933763790e+02 -3.570262010644774620e+01 -5.150146738222176879e+01 -1.034533556013492301e+02 1.795887535367885448e+02 1.013962119422933661e+01 -2.712629047766257173e+01 -1.638526581651225911e+01 7.589639624959760056e+01 1.511048224363720038e+01 2.416278871659059391e+01 -2.043667857530921950e+01 -4.471774806948059933e+01 2.016031412276167956e+01 -1.402773504330357355e+02 -1.535485657067688692e+02 -8.712766373687458099e+01 -1.841088949364848304e+02 -8.642543489551626124e+01 8.268497256177467136e+01 5.923133731843121552e+01 -2.511351591186822674e+01 5.861672988421199904e+01 -1.510888460416485373e+02 -3.950895036097747948e+01 -1.120660263342622329e+02 -6.438149389260976818e+01 2.036082539733409646e+02 -1.980350697022098245e+02 1.980059600350378162e+02 2.404385460398129126e+01 -5.441768551908846518e+01 8.889231660865094398e+01 1.196900032300667789e+02 -5.004745772656516323e+01 -1.966139673998117132e+02 -1.438228745697096826e+02 9.868972819640177363e+01 8.079414126143922203e+01 -1.307522153005712937e+02 3.077723884545313737e+01 -3.831601760365150255e+01 -7.467046492743908459e+01 -2.742759133292708640e+01 -5.285913402912239434e+01 -8.334260599235523159e+01 -3.288909363831453447e+01 4.416248983918272586e+00 -3.145397030255040605e+01 -3.270455816737595223e-01 -1.376431797780464628e+01 8.864542475498411989e+01 1.226662203680120058e+02 1.268310055465848940e+01 1.622552455134413307e+01 -6.095678555752434846e+01 -1.891951139631113392e+02 3.264639453158930849e+01 -8.845464246959052446e+01 2.494503172027003757e+01 -7.774657003896754404e+00 1.066713208043009509e+00 6.992697623634882120e+01 1.176072531058727151e+02 -6.802927991490962256e+01 3.665902174920119450e+01 -1.861717610115354375e+02 9.365282470446796736e+00 6.618952174690618584e+00 -1.182597269472598356e+02 -3.250249213071916898e+01 -4.276719188279142259e+01 4.585689992185681518e+00 -9.862541767984872365e+01 2.609000465122628043e+01 -9.418778207176163164e+01 5.401130692439242864e+01 6.550838202277726907e+01 3.561796870137262516e+01 -2.798813095028048892e+01 1.037191680251740280e+02 5.897388872989142072e+01 7.719495194120955261e+01 -6.466310273001862186e+01 1.949105526889279361e+01 1.233394014780740520e+02 -5.644842363612233527e+01 -6.679364697813312546e+00 3.084345210892259814e+01 -1.238942883686604262e+02 9.430994254241738872e+01 8.638798022636370888e+01 -9.761706308367756435e+01 -7.940196571921633506e+01 -5.357128654462241002e+01 -4.407616127561549035e+01 -1.544296221848850621e+02 -1.309963709872973823e+02 -1.277451284972011365e+02 1.018613924025505497e+02 5.768655483652092641e+01 1.537952587920753160e+02 6.958139782541336693e+00 -8.252581431784203403e+01 1.810390039498997794e+01 1.331831303126401345e+01 -6.129922352964388210e+01 7.134520574628525935e+01 1.137282177127367504e+02 9.560573146770918740e+00 1.380248615279731155e+02 2.163816583606040922e+01 1.068288514116219261e+02 1.448401468929910862e+01 -2.000801812599137008e+02 2.102599914513713770e+02 -4.711182959744711241e+01 -1.434478566141309841e+02 -6.467430056343755496e+01 -4.118691550872892293e+01 3.972965042862489327e+01 2.454052863723113020e+01 4.387057522458736969e+01 -7.091343178373298883e+01 1.171804006763555321e+02 -8.257560468614555305e+01 -6.714084495319258217e+00 1.361950702027504292e+02 1.047561189624609881e+02 5.551336300907541954e+01 -1.691845062798686001e+02 2.429625804489990060e+01 1.340486861674267516e+02 2.235426786586886649e+01 9.312946864191185625e+01 1.015018314858276085e+02 -2.017249803921804414e+02 7.332323184182853026e+01 -5.503121727699349464e+01 -2.142942165146343712e+02 8.426008281068354222e+01 2.335438719060827140e+01 -1.155520932746669445e+02 -5.536870947473450144e+01 1.310129767841973205e+02 1.391965699671449102e+02 -7.150501073823340903e+01 -1.202722574357941312e+02 -7.840893010981676525e+01 -1.557138380243393385e+02 1.837435720927951621e+01 3.560485439305337962e+01 -1.596877516500188499e+01 -1.159759755388986058e+01 -8.374421195717106059e+01 -8.243900454995404914e+01 -2.303293038636539336e+01 1.246115176320152642e+02 1.265266666640703761e+02 7.529965833248773777e+01 9.011813645070179746e+01 -7.272023154495025210e+01 -1.673023824308200744e+02 -1.217455168546602451e+01 -2.132655162395284876e+01 -6.567658590116131734e+01 1.359074925593803274e+00 6.747070494747569569e+01 -4.886710177981895242e+01 2.287833884636806658e+01 7.316315930027383274e+01 6.477211221156527188e+01 1.021487386538585014e+02 -1.377712682100579968e+02 3.660532058219786222e+01 7.696131924944002378e+01 8.753181995116040071e+01 5.452295810148604005e+01 -9.535801343728894608e+01 1.264682038696977884e+02 1.177850962804748320e+02 8.855608563353059992e+01 9.380037001402637031e+01 -7.777330707510098762e+01 -1.371360929776207627e+01 -1.198254692798164456e+01 7.114242055833385336e+01 6.002496976488823321e+01 5.178991813944627154e+01 9.010048197815554261e+01 1.076520417913394283e+02 1.145685537852944123e+02 -5.983285729405886855e+01 7.448074765958158139e+01 6.023986105319016815e+01 -1.086976409961040417e+02 1.215809984184775630e+02 -9.246772234495630016e+00 -2.581567589564943432e+01 1.842313804036568854e+02 8.184523949362478845e+01 1.147860719405719863e+02 -1.335138034391030430e+02 -1.459723864541124101e+02 -1.421064913076764356e+02 -1.129986778853884175e+02 -4.098076983968185516e+01 1.015505224815022274e+02 -1.561792885226571173e+02 3.007505767982413403e+01 1.336832291789761200e+02 -5.499986947508942592e+01 -8.462110673410981576e+01 -3.258142275691029255e+01 1.258955121129939840e+02 2.106917994285824136e+02 -6.190020821157774122e+01 1.839486171204123011e+01 -2.565475946523628537e+01 6.355441261271080577e+01 5.586903262637171963e+01 -1.978962058408752398e+02 -8.231199251968253350e+01 1.277483639758713991e+02 1.297848754086920735e+02 8.777878604736567070e+01 -4.631732989917978216e+01 -7.037067372096916529e+01 -4.211946514639248562e+01 -1.640837004938821622e+02 6.606264633932744346e+01 -2.380986430467653037e+01 1.545891260989204454e+02 -2.598483235898161325e+01 -2.924635336322114654e+02 1.346387426771702280e+02 4.661652180766121489e+01 -1.096214792493274501e+02 -2.065538449039449631e+01 3.280606924652436618e+01 -1.931231011389920695e+02 -1.062223796661600517e+02 -1.020043297610262130e+02 -5.240023397940542083e+01 5.836305218118425131e+01 -1.533477017178775554e+02 1.003089709832285052e+02 -5.053176761894892621e+01 2.739083123421172328e+00 -1.241064197071958688e+02 -9.650481842127977927e+01 1.635780905267057221e+02 8.063510095712442194e+01 -3.929075759587237826e+01 3.453433050395097581e+01 -2.608375274758454765e+01 4.036428970830291263e+01 -9.736876264276948234e+01 9.213950146110467188e+01 4.697591586006748798e+01 -1.106535081747544496e+02 1.086635986355640426e+02 -4.568406147983093746e+01 9.298483430409643802e+01 -4.597104709627803487e+01 8.224551584795813142e+01 -1.427914171508140839e+02 1.329127900438224970e+02 2.304453853708741207e+01 9.375841306556424115e+01 1.214717400966382144e+02 -1.365958367750972116e+02 -8.001706001638638099e+01 -9.839913956702284281e+01 6.227172829381335362e+01 -1.596269557639644177e+02 1.412404037229542837e+02 1.325796780585713748e+02 4.934219610840081316e+01 -7.910271843567637973e+01 5.318419460326794734e+01 -1.000563073541520112e+02 -1.015432251477672310e+01 3.256712314642978612e+01 -1.712288484473833705e+02 -7.598762764486522769e+01 -1.261287811615636656e+01 9.521615672315654422e+01 -4.682065257524068613e+01 1.014183922692467803e+02 -5.994271258807337688e+01 -1.964868628314822843e+02 -9.984221622541561203e+01 -3.168483583588647789e+01 -5.609953363401204030e+01 2.803889911376993993e+01 4.800303192128826169e+01 5.893493496068789028e+00 2.376107898057585999e+01 -1.095453337516397028e+02 5.032503098652385631e+01 3.046457526876300648e+01 -6.730219671899172340e+01 8.687694045938116005e+00 5.269381510393913715e+01 -8.905015765100618808e+01 -5.146541965607745794e+01 -2.260325940534335132e+01 9.108833311893343421e+01 -1.600246384130242561e+01 3.921441476619193622e+00 -2.131563065185843300e+02 -8.874155185377755117e+01 9.244896607332115934e+01 -8.323856770999994126e+01 2.927093057508704632e+01 2.900855256819496830e+01 3.537824181412549507e+01 6.174001178233023523e+01 -1.658223105056350448e+02 1.345717020170427247e+02 7.628325625232979235e+01 -7.070689499519842158e+00 -7.551594867119165144e+01 1.045012066225760776e+02 5.804580225402379057e+01 -1.880330901726219679e+02 -4.707187904005669310e+01 -7.640787402413836560e+01 -4.838771208656601175e+01 -5.783479738026908734e+01 -9.250268282437708933e+01 -5.641043302051767228e+01 1.790932036666286820e+02 -1.595820882403127712e+02 6.118522992301186036e+01 2.594506335395125163e+01 -7.031396541465038297e+01 9.737273787891203014e+00 -3.689505169269802565e+01 3.227184360434953270e+00 -8.992600331192343788e+01 -1.847695054506792474e+02 1.720358979271306765e+01 3.915586584604307063e+01 -1.196058246075678788e+01 -8.321929273851921494e+00 -3.719585674100393646e+01 -1.775569404154938411e+02 -2.862704250866566014e+01 -6.110769066087907220e+01 1.300152926778858919e+01 -1.461219256280525869e+01 8.477198796463891028e+01 -5.896244969910303269e+01 -9.695883685282207409e+01 -3.333839040556153321e+01 -8.361874761943443701e+00 4.243439854710785397e+01 -2.066308212067385597e+01 -6.912999746271439960e+01 -1.486511613283408195e+01 1.872421376550330407e+01 4.443340694988823714e+01 -1.065974558866778068e+02 -1.300390539097962517e+02 2.155124700113601364e+02 -2.042428668850727149e+02 -7.100657361278395285e+01 -4.331088956328040496e+01 1.308298826309514595e+02 5.919625068048114258e+01 2.142733775571680894e+02 2.290435808184902839e+02 -5.838273937651377565e+01 1.210951216590482744e+02 -5.251245939035491972e+01 -3.821305234930693473e+01 -9.412133132635020161e+01 -7.470588021091508324e+01 -6.504444783047276246e+01 -8.333944461188229980e+01 -2.281488709520387204e+02 -2.534225341126131070e+02 1.260130904499232827e+02 -2.485339590857174841e+01 4.985919339857075983e+01 1.225672046011838461e+02
